{"id":53,"finished":true,"user":"karolina","test":"Jovi4","started":"2017-06-01T09:07:58.083Z","ended":"2017-06-01T09:23:14.767Z","data":[{"block":1,"image":"d0ori_left_9.0_0.9_0.jpg","trial":1,"didAnswer":true,"imgDirection":"left","reactionTime":705,"correctAnswer":true},{"block":1,"image":"d0ori_right_9.0_0.9_3.jpg","trial":2,"didAnswer":true,"imgDirection":"right","reactionTime":1181,"correctAnswer":true},{"block":1,"image":"d0ori_left_9.0_0.9_5.jpg","trial":3,"didAnswer":true,"imgDirection":"left","reactionTime":740,"correctAnswer":true},{"block":1,"image":"d6Right6_low.jpg","trial":4,"didAnswer":true,"imgDirection":"right","reactionTime":582,"correctAnswer":true},{"block":1,"image":"d0ori_right_9.0_0.9_2.jpg","trial":5,"didAnswer":true,"imgDirection":"right","reactionTime":871,"correctAnswer":true},{"block":1,"image":"d0ori_right_9.0_0.9_5.jpg","trial":6,"didAnswer":true,"imgDirection":"right","reactionTime":1053,"correctAnswer":true},{"block":1,"image":"d0ori_left_9.0_0.9_4.jpg","trial":7,"didAnswer":true,"imgDirection":"left","reactionTime":1221,"correctAnswer":true},{"block":1,"image":"d0ori_right_9.0_0.9_1.jpg","trial":8,"didAnswer":true,"imgDirection":"right","reactionTime":606,"correctAnswer":true},{"block":1,"image":"d0ori_right_9.0_0.9_0.jpg","trial":9,"didAnswer":true,"imgDirection":"right","reactionTime":837,"correctAnswer":true},{"block":1,"image":"d0ori_left_9.0_0.9_1.jpg","trial":10,"didAnswer":true,"imgDirection":"left","reactionTime":549,"correctAnswer":true},{"block":1,"image":"d0ori_left_9.0_0.9_2.jpg","trial":11,"didAnswer":true,"imgDirection":"left","reactionTime":563,"correctAnswer":true},{"block":1,"image":"d14Right4NoB_low.jpg","trial":12,"didAnswer":true,"imgDirection":"right","reactionTime":557,"correctAnswer":true},{"block":1,"image":"d0ori_left_9.0_0.9_3.jpg","trial":13,"didAnswer":true,"imgDirection":"left","reactionTime":573,"correctAnswer":true},{"block":1,"image":"d0ori_right_9.0_0.9_4.jpg","trial":14,"didAnswer":true,"imgDirection":"right","reactionTime":565,"correctAnswer":true},{"block":2,"image":"d7ori_21_left_9.0_jit7_0.9.jpg","trial":15,"didAnswer":true,"imgDirection":"left","reactionTime":663,"correctAnswer":true},{"block":2,"image":"lf5Left5_low.jpg","trial":16,"didAnswer":true,"imgDirection":"left","reactionTime":556,"correctAnswer":true},{"block":2,"image":"d7ori_8_right_9.0_jit7_0.9.jpg","trial":17,"didAnswer":true,"imgDirection":"right","reactionTime":548,"correctAnswer":true},{"block":2,"image":"d7ori_9_left_9.0_jit7_0.9.jpg","trial":18,"didAnswer":true,"imgDirection":"left","reactionTime":1861,"correctAnswer":true},{"block":2,"image":"d7ori_12_right_9.0_jit7_0.9.jpg","trial":19,"didAnswer":true,"imgDirection":"right","reactionTime":749,"correctAnswer":true},{"block":2,"image":"d7ori_13_left_9.0_jit7_0.9.jpg","trial":20,"didAnswer":true,"imgDirection":"left","reactionTime":616,"correctAnswer":true},{"block":2,"image":"d7ori_24_right_9.0_jit7_0.9.jpg","trial":21,"didAnswer":true,"imgDirection":"right","reactionTime":1582,"correctAnswer":false},{"block":2,"image":"lf18Left6NoB_low.jpg","trial":22,"didAnswer":true,"imgDirection":"left","reactionTime":620,"correctAnswer":true},{"block":2,"image":"d7ori_1_left_9.0_jit7_0.9.jpg","trial":23,"didAnswer":true,"imgDirection":"left","reactionTime":564,"correctAnswer":true},{"block":2,"image":"d7ori_17_left_9.0_jit7_0.9.jpg","trial":24,"didAnswer":true,"imgDirection":"left","reactionTime":1980,"correctAnswer":true},{"block":2,"image":"d7ori_5_left_9.0_jit7_0.9.jpg","trial":25,"didAnswer":true,"imgDirection":"left","reactionTime":956,"correctAnswer":true},{"block":2,"image":"d7ori_20_right_9.0_jit7_0.9.jpg","trial":26,"didAnswer":true,"imgDirection":"right","reactionTime":596,"correctAnswer":true},{"block":2,"image":"d7ori_16_right_9.0_jit7_0.9.jpg","trial":27,"didAnswer":true,"imgDirection":"right","reactionTime":613,"correctAnswer":true},{"block":2,"image":"d7ori_4_right_9.0_jit7_0.9.jpg","trial":28,"didAnswer":true,"imgDirection":"right","reactionTime":757,"correctAnswer":true},{"block":3,"image":"lf23Left11NoB_low.jpg","trial":29,"didAnswer":true,"imgDirection":"left","reactionTime":616,"correctAnswer":true},{"block":3,"image":"left-d7ori_17_left_9.0_jit9_0.9.jpg","trial":30,"didAnswer":true,"imgDirection":"left","reactionTime":1831,"correctAnswer":true},{"block":3,"image":"right-d7ori_8_right_9.0_jit9_0.9.jpg","trial":31,"didAnswer":true,"imgDirection":"right","reactionTime":609,"correctAnswer":true},{"block":3,"image":"right-d7ori_16_right_9.0_jit9_0.9.jpg","trial":32,"didAnswer":true,"imgDirection":"right","reactionTime":1464,"correctAnswer":true},{"block":3,"image":"right-d7ori_12_right_9.0_jit9_0.9.jpg","trial":33,"didAnswer":true,"imgDirection":"right","reactionTime":867,"correctAnswer":true},{"block":3,"image":"right-d7ori_20_right_9.0_jit9_0.9.jpg","trial":34,"didAnswer":true,"imgDirection":"right","reactionTime":636,"correctAnswer":true},{"block":3,"image":"left-d7ori_9_left_9.0_jit9_0.9.jpg","trial":35,"didAnswer":true,"imgDirection":"left","reactionTime":1950,"correctAnswer":false},{"block":3,"image":"left-d7ori_5_left_9.0_jit9_0.9.jpg","trial":36,"didAnswer":true,"imgDirection":"left","reactionTime":1578,"correctAnswer":true},{"block":3,"image":"left-d7ori_21_left_9.0_jit9_0.9.jpg","trial":37,"didAnswer":true,"imgDirection":"left","reactionTime":1013,"correctAnswer":true},{"block":3,"image":"right-d7ori_24_right_9.0_jit9_0.9.jpg","trial":38,"didAnswer":true,"imgDirection":"right","reactionTime":697,"correctAnswer":true},{"block":3,"image":"left-d7ori_13_left_9.0_jit9_0.9.jpg","trial":39,"didAnswer":true,"imgDirection":"left","reactionTime":1028,"correctAnswer":false},{"block":3,"image":"right-d7ori_4_right_9.0_jit9_0.9.jpg","trial":40,"didAnswer":true,"imgDirection":"right","reactionTime":657,"correctAnswer":true},{"block":3,"image":"left-d7ori_1_left_9.0_jit9_0.9.jpg","trial":41,"didAnswer":false,"imgDirection":"left","reactionTime":2012,"correctAnswer":null},{"block":3,"image":"lf2Left2_low.jpg","trial":42,"didAnswer":true,"imgDirection":"left","reactionTime":565,"correctAnswer":true},{"block":4,"image":"d7ori_6_left_9.0_jit11_0.9.jpg","trial":43,"didAnswer":false,"imgDirection":"left","reactionTime":2010,"correctAnswer":null},{"block":4,"image":"d7ori_14_left_9.0_jit11_0.9.jpg","trial":44,"didAnswer":true,"imgDirection":"left","reactionTime":847,"correctAnswer":true},{"block":4,"image":"d7ori_23_right_9.0_jit11_0.9.jpg","trial":45,"didAnswer":true,"imgDirection":"right","reactionTime":1119,"correctAnswer":true},{"block":4,"image":"d7ori_18_left_9.0_jit11_0.9.jpg","trial":46,"didAnswer":true,"imgDirection":"left","reactionTime":804,"correctAnswer":true},{"block":4,"image":"d7ori_15_right_9.0_jit11_0.9.jpg","trial":47,"didAnswer":true,"imgDirection":"right","reactionTime":843,"correctAnswer":true},{"block":4,"image":"d7ori_19_right_9.0_jit11_0.9.jpg","trial":48,"didAnswer":true,"imgDirection":"right","reactionTime":794,"correctAnswer":true},{"block":4,"image":"d7ori_10_left_9.0_jit11_0.9.jpg","trial":49,"didAnswer":true,"imgDirection":"left","reactionTime":945,"correctAnswer":true},{"block":4,"image":"d7ori_3_right_9.0_jit11_0.9.jpg","trial":50,"didAnswer":true,"imgDirection":"right","reactionTime":1500,"correctAnswer":true},{"block":4,"image":"d7ori_2_left_9.0_jit11_0.9.jpg","trial":51,"didAnswer":true,"imgDirection":"left","reactionTime":907,"correctAnswer":true},{"block":4,"image":"d7ori_22_left_9.0_jit11_0.9.jpg","trial":52,"didAnswer":true,"imgDirection":"left","reactionTime":732,"correctAnswer":true},{"block":4,"image":"d7ori_11_right_9.0_jit11_0.9.jpg","trial":53,"didAnswer":true,"imgDirection":"right","reactionTime":865,"correctAnswer":true},{"block":4,"image":"lf10Left10_low.jpg","trial":54,"didAnswer":true,"imgDirection":"left","reactionTime":797,"correctAnswer":true},{"block":4,"image":"d10Right0NoB_low.jpg","trial":55,"didAnswer":true,"imgDirection":"right","reactionTime":617,"correctAnswer":true},{"block":4,"image":"d7ori_7_right_9.0_jit11_0.9.jpg","trial":56,"didAnswer":true,"imgDirection":"right","reactionTime":937,"correctAnswer":false},{"block":5,"image":"lf13Left1NoB_low.jpg","trial":57,"didAnswer":true,"imgDirection":"left","reactionTime":594,"correctAnswer":true},{"block":5,"image":"d4Right4_low.jpg","trial":58,"didAnswer":true,"imgDirection":"right","reactionTime":803,"correctAnswer":true},{"block":5,"image":"d7ori_9_left_9.0_jit13_0.9.jpg","trial":59,"didAnswer":true,"imgDirection":"left","reactionTime":1074,"correctAnswer":false},{"block":5,"image":"d7ori_4_right_9.0_jit13_0.9.jpg","trial":60,"didAnswer":true,"imgDirection":"right","reactionTime":845,"correctAnswer":true},{"block":5,"image":"d7ori_20_right_9.0_jit13_0.9.jpg","trial":61,"didAnswer":true,"imgDirection":"right","reactionTime":831,"correctAnswer":false},{"block":5,"image":"d7ori_13_left_9.0_jit13_0.9.jpg","trial":62,"didAnswer":true,"imgDirection":"left","reactionTime":622,"correctAnswer":true},{"block":5,"image":"d7ori_5_left_9.0_jit13_0.9.jpg","trial":63,"didAnswer":true,"imgDirection":"left","reactionTime":641,"correctAnswer":false},{"block":5,"image":"d7ori_24_right_9.0_jit13_0.9.jpg","trial":64,"didAnswer":true,"imgDirection":"right","reactionTime":1001,"correctAnswer":true},{"block":5,"image":"d7ori_8_right_9.0_jit13_0.9.jpg","trial":65,"didAnswer":true,"imgDirection":"right","reactionTime":742,"correctAnswer":true},{"block":5,"image":"d7ori_12_right_9.0_jit13_0.9.jpg","trial":66,"didAnswer":true,"imgDirection":"right","reactionTime":708,"correctAnswer":true},{"block":5,"image":"d7ori_17_left_9.0_jit13_0.9.jpg","trial":67,"didAnswer":true,"imgDirection":"left","reactionTime":575,"correctAnswer":true},{"block":5,"image":"d7ori_21_left_9.0_jit13_0.9.jpg","trial":68,"didAnswer":true,"imgDirection":"left","reactionTime":496,"correctAnswer":false},{"block":5,"image":"d7ori_16_right_9.0_jit13_0.9.jpg","trial":69,"didAnswer":true,"imgDirection":"right","reactionTime":687,"correctAnswer":true},{"block":5,"image":"d7ori_1_left_9.0_jit13_0.9.jpg","trial":70,"didAnswer":true,"imgDirection":"left","reactionTime":754,"correctAnswer":false},{"block":6,"image":"d7ori_4_right_9.0_jit15_0.9.jpg","trial":71,"didAnswer":true,"imgDirection":"right","reactionTime":807,"correctAnswer":true},{"block":6,"image":"d7ori_12_right_9.0_jit15_0.9.jpg","trial":72,"didAnswer":true,"imgDirection":"right","reactionTime":565,"correctAnswer":true},{"block":6,"image":"d15Right5NoB_low.jpg","trial":73,"didAnswer":true,"imgDirection":"right","reactionTime":527,"correctAnswer":true},{"block":6,"image":"d7ori_20_right_9.0_jit15_0.9.jpg","trial":74,"didAnswer":true,"imgDirection":"right","reactionTime":629,"correctAnswer":true},{"block":6,"image":"d7ori_16_right_9.0_jit15_0.9.jpg","trial":75,"didAnswer":true,"imgDirection":"right","reactionTime":903,"correctAnswer":true},{"block":6,"image":"d7ori_13_left_9.0_jit15_0.9.jpg","trial":76,"didAnswer":true,"imgDirection":"left","reactionTime":681,"correctAnswer":true},{"block":6,"image":"d7ori_5_left_9.0_jit15_0.9.jpg","trial":77,"didAnswer":true,"imgDirection":"left","reactionTime":1156,"correctAnswer":false},{"block":6,"image":"d7ori_8_right_9.0_jit15_0.9.jpg","trial":78,"didAnswer":true,"imgDirection":"right","reactionTime":1764,"correctAnswer":false},{"block":6,"image":"d7ori_1_left_9.0_jit15_0.9.jpg","trial":79,"didAnswer":true,"imgDirection":"left","reactionTime":1251,"correctAnswer":false},{"block":6,"image":"d7ori_9_left_9.0_jit15_0.9.jpg","trial":80,"didAnswer":true,"imgDirection":"left","reactionTime":901,"correctAnswer":false},{"block":6,"image":"d7ori_21_left_9.0_jit15_0.9.jpg","trial":81,"didAnswer":true,"imgDirection":"left","reactionTime":1022,"correctAnswer":true},{"block":6,"image":"lf6Left6_low.jpg","trial":82,"didAnswer":true,"imgDirection":"left","reactionTime":660,"correctAnswer":true},{"block":6,"image":"d7ori_24_right_9.0_jit15_0.9.jpg","trial":83,"didAnswer":true,"imgDirection":"right","reactionTime":725,"correctAnswer":true},{"block":6,"image":"d7ori_17_left_9.0_jit15_0.9.jpg","trial":84,"didAnswer":false,"imgDirection":"left","reactionTime":2012,"correctAnswer":null},{"block":7,"image":"d0ori_left_9.0_0.9_11.jpg","trial":85,"didAnswer":true,"imgDirection":"left","reactionTime":1409,"correctAnswer":true},{"block":7,"image":"d0ori_left_9.0_0.9_8.jpg","trial":86,"didAnswer":true,"imgDirection":"left","reactionTime":654,"correctAnswer":true},{"block":7,"image":"d0ori_right_9.0_0.9_7.jpg","trial":87,"didAnswer":true,"imgDirection":"right","reactionTime":613,"correctAnswer":true},{"block":7,"image":"d11Right1NoB_low.jpg","trial":88,"didAnswer":true,"imgDirection":"right","reactionTime":543,"correctAnswer":true},{"block":7,"image":"d0ori_right_9.0_0.9_10.jpg","trial":89,"didAnswer":true,"imgDirection":"right","reactionTime":529,"correctAnswer":true},{"block":7,"image":"d0ori_right_9.0_0.9_11.jpg","trial":90,"didAnswer":true,"imgDirection":"right","reactionTime":553,"correctAnswer":true},{"block":7,"image":"d0ori_right_9.0_0.9_8.jpg","trial":91,"didAnswer":true,"imgDirection":"right","reactionTime":561,"correctAnswer":true},{"block":7,"image":"d0ori_right_9.0_0.9_6.jpg","trial":92,"didAnswer":true,"imgDirection":"right","reactionTime":602,"correctAnswer":true},{"block":7,"image":"d0ori_right_9.0_0.9_9.jpg","trial":93,"didAnswer":true,"imgDirection":"right","reactionTime":481,"correctAnswer":true},{"block":7,"image":"d0ori_left_9.0_0.9_10.jpg","trial":94,"didAnswer":true,"imgDirection":"left","reactionTime":600,"correctAnswer":true},{"block":7,"image":"d0ori_left_9.0_0.9_9.jpg","trial":95,"didAnswer":true,"imgDirection":"left","reactionTime":632,"correctAnswer":true},{"block":7,"image":"d11Right11_low.jpg","trial":96,"didAnswer":true,"imgDirection":"right","reactionTime":459,"correctAnswer":true},{"block":7,"image":"d0ori_left_9.0_0.9_6.jpg","trial":97,"didAnswer":true,"imgDirection":"left","reactionTime":712,"correctAnswer":true},{"block":7,"image":"d0ori_left_9.0_0.9_7.jpg","trial":98,"didAnswer":true,"imgDirection":"left","reactionTime":524,"correctAnswer":true},{"block":8,"image":"d7ori_19_right_9.0_jit7_0.9.jpg","trial":99,"didAnswer":true,"imgDirection":"right","reactionTime":1011,"correctAnswer":true},{"block":8,"image":"d7ori_10_left_9.0_jit7_0.9.jpg","trial":100,"didAnswer":true,"imgDirection":"left","reactionTime":735,"correctAnswer":true},{"block":8,"image":"d7ori_6_left_9.0_jit7_0.9.jpg","trial":101,"didAnswer":true,"imgDirection":"left","reactionTime":701,"correctAnswer":true},{"block":8,"image":"d7ori_15_right_9.0_jit7_0.9.jpg","trial":102,"didAnswer":true,"imgDirection":"right","reactionTime":736,"correctAnswer":true},{"block":8,"image":"d7ori_14_left_9.0_jit7_0.9.jpg","trial":103,"didAnswer":true,"imgDirection":"left","reactionTime":685,"correctAnswer":true},{"block":8,"image":"d7ori_11_right_9.0_jit7_0.9.jpg","trial":104,"didAnswer":true,"imgDirection":"right","reactionTime":688,"correctAnswer":true},{"block":8,"image":"d7ori_3_right_9.0_jit7_0.9.jpg","trial":105,"didAnswer":true,"imgDirection":"right","reactionTime":787,"correctAnswer":true},{"block":8,"image":"d7ori_7_right_9.0_jit7_0.9.jpg","trial":106,"didAnswer":true,"imgDirection":"right","reactionTime":620,"correctAnswer":true},{"block":8,"image":"d7ori_23_right_9.0_jit7_0.9.jpg","trial":107,"didAnswer":true,"imgDirection":"right","reactionTime":602,"correctAnswer":true},{"block":8,"image":"d7ori_18_left_9.0_jit7_0.9.jpg","trial":108,"didAnswer":true,"imgDirection":"left","reactionTime":717,"correctAnswer":true},{"block":8,"image":"d2Right2_low.jpg","trial":109,"didAnswer":true,"imgDirection":"right","reactionTime":474,"correctAnswer":true},{"block":8,"image":"d7ori_2_left_9.0_jit7_0.9.jpg","trial":110,"didAnswer":true,"imgDirection":"left","reactionTime":521,"correctAnswer":true},{"block":8,"image":"lf16Left4NoB_low.jpg","trial":111,"didAnswer":true,"imgDirection":"left","reactionTime":544,"correctAnswer":true},{"block":8,"image":"d7ori_22_left_9.0_jit7_0.9.jpg","trial":112,"didAnswer":true,"imgDirection":"left","reactionTime":776,"correctAnswer":true},{"block":9,"image":"left-d7ori_2_left_9.0_jit9_0.9.jpg","trial":113,"didAnswer":true,"imgDirection":"left","reactionTime":1068,"correctAnswer":true},{"block":9,"image":"left-d7ori_22_left_9.0_jit9_0.9.jpg","trial":114,"didAnswer":true,"imgDirection":"left","reactionTime":635,"correctAnswer":true},{"block":9,"image":"left-d7ori_14_left_9.0_jit9_0.9.jpg","trial":115,"didAnswer":true,"imgDirection":"left","reactionTime":501,"correctAnswer":true},{"block":9,"image":"right-d7ori_3_right_9.0_jit9_0.9.jpg","trial":116,"didAnswer":true,"imgDirection":"right","reactionTime":594,"correctAnswer":true},{"block":9,"image":"d19Right9NoB_low.jpg","trial":117,"didAnswer":true,"imgDirection":"right","reactionTime":540,"correctAnswer":true},{"block":9,"image":"right-d7ori_11_right_9.0_jit9_0.9.jpg","trial":118,"didAnswer":true,"imgDirection":"right","reactionTime":676,"correctAnswer":false},{"block":9,"image":"right-d7ori_23_right_9.0_jit9_0.9.jpg","trial":119,"didAnswer":true,"imgDirection":"right","reactionTime":583,"correctAnswer":true},{"block":9,"image":"right-d7ori_15_right_9.0_jit9_0.9.jpg","trial":120,"didAnswer":true,"imgDirection":"right","reactionTime":729,"correctAnswer":true},{"block":9,"image":"right-d7ori_19_right_9.0_jit9_0.9.jpg","trial":121,"didAnswer":true,"imgDirection":"right","reactionTime":868,"correctAnswer":true},{"block":9,"image":"right-d7ori_7_right_9.0_jit9_0.9.jpg","trial":122,"didAnswer":true,"imgDirection":"right","reactionTime":628,"correctAnswer":true},{"block":9,"image":"left-d7ori_10_left_9.0_jit9_0.9.jpg","trial":123,"didAnswer":true,"imgDirection":"left","reactionTime":598,"correctAnswer":true},{"block":9,"image":"left-d7ori_18_left_9.0_jit9_0.9.jpg","trial":124,"didAnswer":true,"imgDirection":"left","reactionTime":663,"correctAnswer":true},{"block":9,"image":"left-d7ori_6_left_9.0_jit9_0.9.jpg","trial":125,"didAnswer":true,"imgDirection":"left","reactionTime":690,"correctAnswer":true},{"block":9,"image":"lf9Left9_low.jpg","trial":126,"didAnswer":true,"imgDirection":"left","reactionTime":494,"correctAnswer":true},{"block":10,"image":"d7ori_9_left_9.0_jit11_0.9.jpg","trial":127,"didAnswer":true,"imgDirection":"left","reactionTime":843,"correctAnswer":false},{"block":10,"image":"d7ori_24_right_9.0_jit11_0.9.jpg","trial":128,"didAnswer":true,"imgDirection":"right","reactionTime":740,"correctAnswer":true},{"block":10,"image":"d7ori_4_right_9.0_jit11_0.9.jpg","trial":129,"didAnswer":true,"imgDirection":"right","reactionTime":668,"correctAnswer":true},{"block":10,"image":"d7ori_1_left_9.0_jit11_0.9.jpg","trial":130,"didAnswer":true,"imgDirection":"left","reactionTime":739,"correctAnswer":false},{"block":10,"image":"d7ori_17_left_9.0_jit11_0.9.jpg","trial":131,"didAnswer":true,"imgDirection":"left","reactionTime":616,"correctAnswer":false},{"block":10,"image":"d7ori_8_right_9.0_jit11_0.9.jpg","trial":132,"didAnswer":true,"imgDirection":"right","reactionTime":609,"correctAnswer":true},{"block":10,"image":"lf7Left7_low.jpg","trial":133,"didAnswer":true,"imgDirection":"left","reactionTime":507,"correctAnswer":true},{"block":10,"image":"d7ori_5_left_9.0_jit11_0.9.jpg","trial":134,"didAnswer":true,"imgDirection":"left","reactionTime":450,"correctAnswer":false},{"block":10,"image":"d7ori_13_left_9.0_jit11_0.9.jpg","trial":135,"didAnswer":true,"imgDirection":"left","reactionTime":879,"correctAnswer":true},{"block":10,"image":"d7ori_12_right_9.0_jit11_0.9.jpg","trial":136,"didAnswer":true,"imgDirection":"right","reactionTime":664,"correctAnswer":true},{"block":10,"image":"d7ori_21_left_9.0_jit11_0.9.jpg","trial":137,"didAnswer":true,"imgDirection":"left","reactionTime":811,"correctAnswer":true},{"block":10,"image":"d12Right2NoB_low.jpg","trial":138,"didAnswer":true,"imgDirection":"right","reactionTime":594,"correctAnswer":true},{"block":10,"image":"d7ori_20_right_9.0_jit11_0.9.jpg","trial":139,"didAnswer":true,"imgDirection":"right","reactionTime":764,"correctAnswer":true},{"block":10,"image":"d7ori_16_right_9.0_jit11_0.9.jpg","trial":140,"didAnswer":true,"imgDirection":"right","reactionTime":648,"correctAnswer":true},{"block":11,"image":"d7ori_2_left_9.0_jit13_0.9.jpg","trial":141,"didAnswer":true,"imgDirection":"left","reactionTime":1026,"correctAnswer":false},{"block":11,"image":"lf15Left3NoB_low.jpg","trial":142,"didAnswer":true,"imgDirection":"left","reactionTime":582,"correctAnswer":true},{"block":11,"image":"d7ori_14_left_9.0_jit13_0.9.jpg","trial":143,"didAnswer":true,"imgDirection":"left","reactionTime":1280,"correctAnswer":true},{"block":11,"image":"d7ori_6_left_9.0_jit13_0.9.jpg","trial":144,"didAnswer":true,"imgDirection":"left","reactionTime":779,"correctAnswer":false},{"block":11,"image":"d7ori_10_left_9.0_jit13_0.9.jpg","trial":145,"didAnswer":true,"imgDirection":"left","reactionTime":849,"correctAnswer":true},{"block":11,"image":"d3Right3_low.jpg","trial":146,"didAnswer":true,"imgDirection":"right","reactionTime":576,"correctAnswer":true},{"block":11,"image":"d7ori_22_left_9.0_jit13_0.9.jpg","trial":147,"didAnswer":true,"imgDirection":"left","reactionTime":504,"correctAnswer":true},{"block":11,"image":"d7ori_7_right_9.0_jit13_0.9.jpg","trial":148,"didAnswer":true,"imgDirection":"right","reactionTime":640,"correctAnswer":true},{"block":11,"image":"d7ori_18_left_9.0_jit13_0.9.jpg","trial":149,"didAnswer":true,"imgDirection":"left","reactionTime":729,"correctAnswer":false},{"block":11,"image":"d7ori_23_right_9.0_jit13_0.9.jpg","trial":150,"didAnswer":true,"imgDirection":"right","reactionTime":1646,"correctAnswer":false},{"block":11,"image":"d7ori_15_right_9.0_jit13_0.9.jpg","trial":151,"didAnswer":true,"imgDirection":"right","reactionTime":882,"correctAnswer":true},{"block":11,"image":"d7ori_3_right_9.0_jit13_0.9.jpg","trial":152,"didAnswer":true,"imgDirection":"right","reactionTime":996,"correctAnswer":true},{"block":11,"image":"d7ori_19_right_9.0_jit13_0.9.jpg","trial":153,"didAnswer":true,"imgDirection":"right","reactionTime":798,"correctAnswer":true},{"block":11,"image":"d7ori_11_right_9.0_jit13_0.9.jpg","trial":154,"didAnswer":true,"imgDirection":"right","reactionTime":829,"correctAnswer":true},{"block":12,"image":"d7ori_15_right_9.0_jit15_0.9.jpg","trial":155,"didAnswer":true,"imgDirection":"right","reactionTime":1620,"correctAnswer":true},{"block":12,"image":"lf21Left9NoB_low.jpg","trial":156,"didAnswer":true,"imgDirection":"left","reactionTime":550,"correctAnswer":true},{"block":12,"image":"d7ori_7_right_9.0_jit15_0.9.jpg","trial":157,"didAnswer":false,"imgDirection":"right","reactionTime":2011,"correctAnswer":null},{"block":12,"image":"lf4Left4_low.jpg","trial":158,"didAnswer":true,"imgDirection":"left","reactionTime":525,"correctAnswer":true},{"block":12,"image":"d7ori_23_right_9.0_jit15_0.9.jpg","trial":159,"didAnswer":true,"imgDirection":"right","reactionTime":1212,"correctAnswer":false},{"block":12,"image":"d7ori_14_left_9.0_jit15_0.9.jpg","trial":160,"didAnswer":true,"imgDirection":"left","reactionTime":1757,"correctAnswer":false},{"block":12,"image":"d7ori_22_left_9.0_jit15_0.9.jpg","trial":161,"didAnswer":true,"imgDirection":"left","reactionTime":732,"correctAnswer":false},{"block":12,"image":"d7ori_6_left_9.0_jit15_0.9.jpg","trial":162,"didAnswer":true,"imgDirection":"left","reactionTime":760,"correctAnswer":true},{"block":12,"image":"d7ori_19_right_9.0_jit15_0.9.jpg","trial":163,"didAnswer":true,"imgDirection":"right","reactionTime":870,"correctAnswer":false},{"block":12,"image":"d7ori_2_left_9.0_jit15_0.9.jpg","trial":164,"didAnswer":true,"imgDirection":"left","reactionTime":885,"correctAnswer":false},{"block":12,"image":"d7ori_18_left_9.0_jit15_0.9.jpg","trial":165,"didAnswer":true,"imgDirection":"left","reactionTime":1262,"correctAnswer":false},{"block":12,"image":"d7ori_10_left_9.0_jit15_0.9.jpg","trial":166,"didAnswer":true,"imgDirection":"left","reactionTime":841,"correctAnswer":false},{"block":12,"image":"d7ori_3_right_9.0_jit15_0.9.jpg","trial":167,"didAnswer":true,"imgDirection":"right","reactionTime":704,"correctAnswer":true},{"block":12,"image":"d7ori_11_right_9.0_jit15_0.9.jpg","trial":168,"didAnswer":true,"imgDirection":"right","reactionTime":876,"correctAnswer":true},{"block":13,"image":"d0ori_right_9.0_0.9_13.jpg","trial":169,"didAnswer":true,"imgDirection":"right","reactionTime":855,"correctAnswer":true},{"block":13,"image":"d0ori_left_9.0_0.9_15.jpg","trial":170,"didAnswer":true,"imgDirection":"left","reactionTime":813,"correctAnswer":true},{"block":13,"image":"d0ori_right_9.0_0.9_15.jpg","trial":171,"didAnswer":true,"imgDirection":"right","reactionTime":555,"correctAnswer":true},{"block":13,"image":"d0ori_right_9.0_0.9_16.jpg","trial":172,"didAnswer":true,"imgDirection":"right","reactionTime":555,"correctAnswer":true},{"block":13,"image":"d0ori_left_9.0_0.9_14.jpg","trial":173,"didAnswer":true,"imgDirection":"left","reactionTime":564,"correctAnswer":true},{"block":13,"image":"d0ori_left_9.0_0.9_17.jpg","trial":174,"didAnswer":true,"imgDirection":"left","reactionTime":571,"correctAnswer":true},{"block":13,"image":"d0Right0_low.jpg","trial":175,"didAnswer":true,"imgDirection":"right","reactionTime":701,"correctAnswer":true},{"block":13,"image":"d0ori_right_9.0_0.9_12.jpg","trial":176,"didAnswer":true,"imgDirection":"right","reactionTime":601,"correctAnswer":true},{"block":13,"image":"d0ori_right_9.0_0.9_17.jpg","trial":177,"didAnswer":true,"imgDirection":"right","reactionTime":666,"correctAnswer":true},{"block":13,"image":"d0ori_right_9.0_0.9_14.jpg","trial":178,"didAnswer":true,"imgDirection":"right","reactionTime":605,"correctAnswer":true},{"block":13,"image":"d0ori_left_9.0_0.9_16.jpg","trial":179,"didAnswer":true,"imgDirection":"left","reactionTime":679,"correctAnswer":true},{"block":13,"image":"d0ori_left_9.0_0.9_12.jpg","trial":180,"didAnswer":true,"imgDirection":"left","reactionTime":538,"correctAnswer":true},{"block":13,"image":"d0ori_left_9.0_0.9_13.jpg","trial":181,"didAnswer":true,"imgDirection":"left","reactionTime":538,"correctAnswer":true},{"block":13,"image":"d17Right7NoB_low.jpg","trial":182,"didAnswer":true,"imgDirection":"right","reactionTime":481,"correctAnswer":true},{"block":14,"image":"d7ori_22_right_9.0_jit7_0.9.jpg","trial":183,"didAnswer":true,"imgDirection":"right","reactionTime":966,"correctAnswer":true},{"block":14,"image":"d7ori_19_left_9.0_jit7_0.9.jpg","trial":184,"didAnswer":true,"imgDirection":"left","reactionTime":1529,"correctAnswer":true},{"block":14,"image":"d7ori_6_right_9.0_jit7_0.9.jpg","trial":185,"didAnswer":true,"imgDirection":"right","reactionTime":987,"correctAnswer":false},{"block":14,"image":"d7ori_23_left_9.0_jit7_0.9.jpg","trial":186,"didAnswer":true,"imgDirection":"left","reactionTime":638,"correctAnswer":true},{"block":14,"image":"d10Right10_low.jpg","trial":187,"didAnswer":true,"imgDirection":"right","reactionTime":496,"correctAnswer":true},{"block":14,"image":"d7ori_10_right_9.0_jit7_0.9.jpg","trial":188,"didAnswer":true,"imgDirection":"right","reactionTime":631,"correctAnswer":true},{"block":14,"image":"d7ori_14_right_9.0_jit7_0.9.jpg","trial":189,"didAnswer":true,"imgDirection":"right","reactionTime":792,"correctAnswer":true},{"block":14,"image":"d7ori_18_right_9.0_jit7_0.9.jpg","trial":190,"didAnswer":true,"imgDirection":"right","reactionTime":651,"correctAnswer":true},{"block":14,"image":"d7ori_11_left_9.0_jit7_0.9.jpg","trial":191,"didAnswer":true,"imgDirection":"left","reactionTime":581,"correctAnswer":true},{"block":14,"image":"d7ori_3_left_9.0_jit7_0.9.jpg","trial":192,"didAnswer":true,"imgDirection":"left","reactionTime":648,"correctAnswer":true},{"block":14,"image":"d7ori_2_right_9.0_jit7_0.9.jpg","trial":193,"didAnswer":true,"imgDirection":"right","reactionTime":501,"correctAnswer":true},{"block":14,"image":"d7ori_15_left_9.0_jit7_0.9.jpg","trial":194,"didAnswer":true,"imgDirection":"left","reactionTime":613,"correctAnswer":false},{"block":14,"image":"d23Right11NoB_low.jpg","trial":195,"didAnswer":true,"imgDirection":"right","reactionTime":495,"correctAnswer":true},{"block":14,"image":"d7ori_7_left_9.0_jit7_0.9.jpg","trial":196,"didAnswer":true,"imgDirection":"left","reactionTime":549,"correctAnswer":true},{"block":15,"image":"left-d7ori_23_left_9.0_jit9_0.9.jpg","trial":197,"didAnswer":true,"imgDirection":"left","reactionTime":780,"correctAnswer":true},{"block":15,"image":"right-d7ori_14_right_9.0_jit9_0.9.jpg","trial":198,"didAnswer":true,"imgDirection":"right","reactionTime":722,"correctAnswer":false},{"block":15,"image":"right-d7ori_22_right_9.0_jit9_0.9.jpg","trial":199,"didAnswer":true,"imgDirection":"right","reactionTime":920,"correctAnswer":false},{"block":15,"image":"right-d7ori_18_right_9.0_jit9_0.9.jpg","trial":200,"didAnswer":true,"imgDirection":"right","reactionTime":593,"correctAnswer":true},{"block":15,"image":"left-d7ori_19_left_9.0_jit9_0.9.jpg","trial":201,"didAnswer":true,"imgDirection":"left","reactionTime":633,"correctAnswer":true},{"block":15,"image":"right-d7ori_2_right_9.0_jit9_0.9.jpg","trial":202,"didAnswer":true,"imgDirection":"right","reactionTime":597,"correctAnswer":true},{"block":15,"image":"lf11Left11_low.jpg","trial":203,"didAnswer":true,"imgDirection":"left","reactionTime":581,"correctAnswer":true},{"block":15,"image":"left-d7ori_3_left_9.0_jit9_0.9.jpg","trial":204,"didAnswer":true,"imgDirection":"left","reactionTime":710,"correctAnswer":true},{"block":15,"image":"left-d7ori_11_left_9.0_jit9_0.9.jpg","trial":205,"didAnswer":true,"imgDirection":"left","reactionTime":666,"correctAnswer":false},{"block":15,"image":"right-d7ori_10_right_9.0_jit9_0.9.jpg","trial":206,"didAnswer":true,"imgDirection":"right","reactionTime":973,"correctAnswer":false},{"block":15,"image":"lf22Left10NoB_low.jpg","trial":207,"didAnswer":true,"imgDirection":"left","reactionTime":528,"correctAnswer":true},{"block":15,"image":"left-d7ori_7_left_9.0_jit9_0.9.jpg","trial":208,"didAnswer":true,"imgDirection":"left","reactionTime":775,"correctAnswer":true},{"block":15,"image":"right-d7ori_6_right_9.0_jit9_0.9.jpg","trial":209,"didAnswer":true,"imgDirection":"right","reactionTime":756,"correctAnswer":true},{"block":15,"image":"left-d7ori_15_left_9.0_jit9_0.9.jpg","trial":210,"didAnswer":true,"imgDirection":"left","reactionTime":530,"correctAnswer":true},{"block":16,"image":"d7ori_5_right_9.0_jit11_0.9.jpg","trial":211,"didAnswer":true,"imgDirection":"right","reactionTime":1017,"correctAnswer":true},{"block":16,"image":"d7ori_21_right_9.0_jit11_0.9.jpg","trial":212,"didAnswer":true,"imgDirection":"right","reactionTime":765,"correctAnswer":true},{"block":16,"image":"d7ori_20_left_9.0_jit11_0.9.jpg","trial":213,"didAnswer":true,"imgDirection":"left","reactionTime":547,"correctAnswer":true},{"block":16,"image":"d7ori_9_right_9.0_jit11_0.9.jpg","trial":214,"didAnswer":true,"imgDirection":"right","reactionTime":826,"correctAnswer":false},{"block":16,"image":"d7ori_8_left_9.0_jit11_0.9.jpg","trial":215,"didAnswer":true,"imgDirection":"left","reactionTime":885,"correctAnswer":true},{"block":16,"image":"d7ori_4_left_9.0_jit11_0.9.jpg","trial":216,"didAnswer":true,"imgDirection":"left","reactionTime":594,"correctAnswer":false},{"block":16,"image":"d7ori_13_right_9.0_jit11_0.9.jpg","trial":217,"didAnswer":true,"imgDirection":"right","reactionTime":731,"correctAnswer":true},{"block":16,"image":"lf12Left0NoB_low.jpg","trial":218,"didAnswer":true,"imgDirection":"left","reactionTime":504,"correctAnswer":true},{"block":16,"image":"d7ori_17_right_9.0_jit11_0.9.jpg","trial":219,"didAnswer":true,"imgDirection":"right","reactionTime":1031,"correctAnswer":true},{"block":16,"image":"d7ori_12_left_9.0_jit11_0.9.jpg","trial":220,"didAnswer":true,"imgDirection":"left","reactionTime":876,"correctAnswer":true},{"block":16,"image":"lf3Left3_low.jpg","trial":221,"didAnswer":true,"imgDirection":"left","reactionTime":475,"correctAnswer":true},{"block":16,"image":"d7ori_1_right_9.0_jit11_0.9.jpg","trial":222,"didAnswer":true,"imgDirection":"right","reactionTime":569,"correctAnswer":true},{"block":16,"image":"d7ori_24_left_9.0_jit11_0.9.jpg","trial":223,"didAnswer":true,"imgDirection":"left","reactionTime":745,"correctAnswer":false},{"block":16,"image":"d7ori_16_left_9.0_jit11_0.9.jpg","trial":224,"didAnswer":true,"imgDirection":"left","reactionTime":759,"correctAnswer":false},{"block":17,"image":"d7ori_15_left_9.0_jit13_0.9.jpg","trial":225,"didAnswer":true,"imgDirection":"left","reactionTime":804,"correctAnswer":true},{"block":17,"image":"d7ori_6_right_9.0_jit13_0.9.jpg","trial":226,"didAnswer":true,"imgDirection":"right","reactionTime":642,"correctAnswer":false},{"block":17,"image":"d7ori_14_right_9.0_jit13_0.9.jpg","trial":227,"didAnswer":true,"imgDirection":"right","reactionTime":557,"correctAnswer":true},{"block":17,"image":"d7ori_10_right_9.0_jit13_0.9.jpg","trial":228,"didAnswer":true,"imgDirection":"right","reactionTime":725,"correctAnswer":true},{"block":17,"image":"d7ori_2_right_9.0_jit13_0.9.jpg","trial":229,"didAnswer":true,"imgDirection":"right","reactionTime":681,"correctAnswer":true},{"block":17,"image":"d7ori_7_left_9.0_jit13_0.9.jpg","trial":230,"didAnswer":true,"imgDirection":"left","reactionTime":588,"correctAnswer":false},{"block":17,"image":"d7ori_11_left_9.0_jit13_0.9.jpg","trial":231,"didAnswer":true,"imgDirection":"left","reactionTime":717,"correctAnswer":false},{"block":17,"image":"d7ori_18_right_9.0_jit13_0.9.jpg","trial":232,"didAnswer":true,"imgDirection":"right","reactionTime":601,"correctAnswer":true},{"block":17,"image":"d7ori_23_left_9.0_jit13_0.9.jpg","trial":233,"didAnswer":true,"imgDirection":"left","reactionTime":803,"correctAnswer":false},{"block":17,"image":"d7ori_22_right_9.0_jit13_0.9.jpg","trial":234,"didAnswer":true,"imgDirection":"right","reactionTime":537,"correctAnswer":true},{"block":17,"image":"d16Right6NoB_low.jpg","trial":235,"didAnswer":true,"imgDirection":"right","reactionTime":528,"correctAnswer":true},{"block":17,"image":"d7ori_19_left_9.0_jit13_0.9.jpg","trial":236,"didAnswer":true,"imgDirection":"left","reactionTime":1480,"correctAnswer":false},{"block":17,"image":"d7ori_3_left_9.0_jit13_0.9.jpg","trial":237,"didAnswer":true,"imgDirection":"left","reactionTime":649,"correctAnswer":true},{"block":17,"image":"d5Right5_low.jpg","trial":238,"didAnswer":true,"imgDirection":"right","reactionTime":473,"correctAnswer":true},{"block":18,"image":"d7ori_7_left_9.0_jit15_0.9.jpg","trial":239,"didAnswer":true,"imgDirection":"left","reactionTime":664,"correctAnswer":false},{"block":18,"image":"d7ori_18_right_9.0_jit15_0.9.jpg","trial":240,"didAnswer":true,"imgDirection":"right","reactionTime":619,"correctAnswer":true},{"block":18,"image":"d7ori_6_right_9.0_jit15_0.9.jpg","trial":241,"didAnswer":true,"imgDirection":"right","reactionTime":580,"correctAnswer":true},{"block":18,"image":"d8Right8_low.jpg","trial":242,"didAnswer":true,"imgDirection":"right","reactionTime":485,"correctAnswer":true},{"block":18,"image":"d7ori_2_right_9.0_jit15_0.9.jpg","trial":243,"didAnswer":true,"imgDirection":"right","reactionTime":500,"correctAnswer":true},{"block":18,"image":"d7ori_19_left_9.0_jit15_0.9.jpg","trial":244,"didAnswer":true,"imgDirection":"left","reactionTime":554,"correctAnswer":true},{"block":18,"image":"lf17Left5NoB_low.jpg","trial":245,"didAnswer":true,"imgDirection":"left","reactionTime":524,"correctAnswer":true},{"block":18,"image":"d7ori_3_left_9.0_jit15_0.9.jpg","trial":246,"didAnswer":true,"imgDirection":"left","reactionTime":610,"correctAnswer":true},{"block":18,"image":"d7ori_23_left_9.0_jit15_0.9.jpg","trial":247,"didAnswer":true,"imgDirection":"left","reactionTime":571,"correctAnswer":false},{"block":18,"image":"d7ori_22_right_9.0_jit15_0.9.jpg","trial":248,"didAnswer":true,"imgDirection":"right","reactionTime":996,"correctAnswer":true},{"block":18,"image":"d7ori_10_right_9.0_jit15_0.9.jpg","trial":249,"didAnswer":true,"imgDirection":"right","reactionTime":519,"correctAnswer":true},{"block":18,"image":"d7ori_15_left_9.0_jit15_0.9.jpg","trial":250,"didAnswer":true,"imgDirection":"left","reactionTime":503,"correctAnswer":false},{"block":18,"image":"d7ori_14_right_9.0_jit15_0.9.jpg","trial":251,"didAnswer":true,"imgDirection":"right","reactionTime":533,"correctAnswer":false},{"block":18,"image":"d7ori_11_left_9.0_jit15_0.9.jpg","trial":252,"didAnswer":true,"imgDirection":"left","reactionTime":589,"correctAnswer":false},{"block":19,"image":"d0ori_right_9.0_0.9_23.jpg","trial":253,"didAnswer":true,"imgDirection":"right","reactionTime":837,"correctAnswer":true},{"block":19,"image":"d0ori_left_9.0_0.9_18.jpg","trial":254,"didAnswer":true,"imgDirection":"left","reactionTime":500,"correctAnswer":true},{"block":19,"image":"d0ori_right_9.0_0.9_22.jpg","trial":255,"didAnswer":true,"imgDirection":"right","reactionTime":651,"correctAnswer":false},{"block":19,"image":"d13Right3NoB_low.jpg","trial":256,"didAnswer":true,"imgDirection":"right","reactionTime":454,"correctAnswer":true},{"block":19,"image":"d0ori_right_9.0_0.9_20.jpg","trial":257,"didAnswer":true,"imgDirection":"right","reactionTime":547,"correctAnswer":false},{"block":19,"image":"d0ori_right_9.0_0.9_18.jpg","trial":258,"didAnswer":true,"imgDirection":"right","reactionTime":539,"correctAnswer":true},{"block":19,"image":"d0ori_left_9.0_0.9_23.jpg","trial":259,"didAnswer":true,"imgDirection":"left","reactionTime":779,"correctAnswer":true},{"block":19,"image":"d0ori_left_9.0_0.9_21.jpg","trial":260,"didAnswer":true,"imgDirection":"left","reactionTime":489,"correctAnswer":true},{"block":19,"image":"d0ori_left_9.0_0.9_20.jpg","trial":261,"didAnswer":true,"imgDirection":"left","reactionTime":472,"correctAnswer":true},{"block":19,"image":"d0ori_right_9.0_0.9_21.jpg","trial":262,"didAnswer":true,"imgDirection":"right","reactionTime":566,"correctAnswer":true},{"block":19,"image":"lf0Left0_low.jpg","trial":263,"didAnswer":true,"imgDirection":"left","reactionTime":454,"correctAnswer":true},{"block":19,"image":"d0ori_left_9.0_0.9_22.jpg","trial":264,"didAnswer":true,"imgDirection":"left","reactionTime":476,"correctAnswer":true},{"block":19,"image":"d0ori_right_9.0_0.9_19.jpg","trial":265,"didAnswer":true,"imgDirection":"right","reactionTime":474,"correctAnswer":true},{"block":19,"image":"d0ori_left_9.0_0.9_19.jpg","trial":266,"didAnswer":true,"imgDirection":"left","reactionTime":416,"correctAnswer":true},{"block":20,"image":"d7ori_13_right_9.0_jit7_0.9.jpg","trial":267,"didAnswer":true,"imgDirection":"right","reactionTime":1484,"correctAnswer":true},{"block":20,"image":"lf1Left1_low.jpg","trial":268,"didAnswer":true,"imgDirection":"left","reactionTime":524,"correctAnswer":true},{"block":20,"image":"d7ori_5_right_9.0_jit7_0.9.jpg","trial":269,"didAnswer":true,"imgDirection":"right","reactionTime":524,"correctAnswer":true},{"block":20,"image":"d7ori_17_right_9.0_jit7_0.9.jpg","trial":270,"didAnswer":true,"imgDirection":"right","reactionTime":507,"correctAnswer":true},{"block":20,"image":"d7ori_16_left_9.0_jit7_0.9.jpg","trial":271,"didAnswer":true,"imgDirection":"left","reactionTime":418,"correctAnswer":true},{"block":20,"image":"d7ori_24_left_9.0_jit7_0.9.jpg","trial":272,"didAnswer":true,"imgDirection":"left","reactionTime":494,"correctAnswer":true},{"block":20,"image":"d7ori_8_left_9.0_jit7_0.9.jpg","trial":273,"didAnswer":true,"imgDirection":"left","reactionTime":629,"correctAnswer":true},{"block":20,"image":"d7ori_9_right_9.0_jit7_0.9.jpg","trial":274,"didAnswer":true,"imgDirection":"right","reactionTime":543,"correctAnswer":true},{"block":20,"image":"d7ori_21_right_9.0_jit7_0.9.jpg","trial":275,"didAnswer":true,"imgDirection":"right","reactionTime":495,"correctAnswer":false},{"block":20,"image":"d7ori_12_left_9.0_jit7_0.9.jpg","trial":276,"didAnswer":true,"imgDirection":"left","reactionTime":461,"correctAnswer":true},{"block":20,"image":"d7ori_4_left_9.0_jit7_0.9.jpg","trial":277,"didAnswer":true,"imgDirection":"left","reactionTime":650,"correctAnswer":true},{"block":20,"image":"d7ori_20_left_9.0_jit7_0.9.jpg","trial":278,"didAnswer":true,"imgDirection":"left","reactionTime":517,"correctAnswer":true},{"block":20,"image":"d7ori_1_right_9.0_jit7_0.9.jpg","trial":279,"didAnswer":true,"imgDirection":"right","reactionTime":675,"correctAnswer":false},{"block":20,"image":"d22Right10NoB_low.jpg","trial":280,"didAnswer":true,"imgDirection":"right","reactionTime":462,"correctAnswer":true},{"block":21,"image":"right-d7ori_13_right_9.0_jit9_0.9.jpg","trial":281,"didAnswer":true,"imgDirection":"right","reactionTime":606,"correctAnswer":true},{"block":21,"image":"right-d7ori_17_right_9.0_jit9_0.9.jpg","trial":282,"didAnswer":true,"imgDirection":"right","reactionTime":463,"correctAnswer":true},{"block":21,"image":"left-d7ori_12_left_9.0_jit9_0.9.jpg","trial":283,"didAnswer":true,"imgDirection":"left","reactionTime":562,"correctAnswer":false},{"block":21,"image":"left-d7ori_20_left_9.0_jit9_0.9.jpg","trial":284,"didAnswer":true,"imgDirection":"left","reactionTime":557,"correctAnswer":true},{"block":21,"image":"right-d7ori_21_right_9.0_jit9_0.9.jpg","trial":285,"didAnswer":true,"imgDirection":"right","reactionTime":524,"correctAnswer":true},{"block":21,"image":"left-d7ori_16_left_9.0_jit9_0.9.jpg","trial":286,"didAnswer":true,"imgDirection":"left","reactionTime":444,"correctAnswer":false},{"block":21,"image":"left-d7ori_8_left_9.0_jit9_0.9.jpg","trial":287,"didAnswer":true,"imgDirection":"left","reactionTime":594,"correctAnswer":true},{"block":21,"image":"right-d7ori_9_right_9.0_jit9_0.9.jpg","trial":288,"didAnswer":true,"imgDirection":"right","reactionTime":602,"correctAnswer":true},{"block":21,"image":"left-d7ori_4_left_9.0_jit9_0.9.jpg","trial":289,"didAnswer":true,"imgDirection":"left","reactionTime":499,"correctAnswer":true},{"block":21,"image":"right-d7ori_1_right_9.0_jit9_0.9.jpg","trial":290,"didAnswer":true,"imgDirection":"right","reactionTime":522,"correctAnswer":true},{"block":21,"image":"left-d7ori_24_left_9.0_jit9_0.9.jpg","trial":291,"didAnswer":true,"imgDirection":"left","reactionTime":592,"correctAnswer":true},{"block":21,"image":"right-d7ori_5_right_9.0_jit9_0.9.jpg","trial":292,"didAnswer":true,"imgDirection":"right","reactionTime":466,"correctAnswer":true},{"block":21,"image":"lf14Left2NoB_low.jpg","trial":293,"didAnswer":true,"imgDirection":"left","reactionTime":448,"correctAnswer":true},{"block":21,"image":"d9Right9_low.jpg","trial":294,"didAnswer":true,"imgDirection":"right","reactionTime":438,"correctAnswer":true},{"block":22,"image":"lf19Left7NoB_low.jpg","trial":295,"didAnswer":true,"imgDirection":"left","reactionTime":1137,"correctAnswer":true},{"block":22,"image":"d7ori_23_left_9.0_jit11_0.9.jpg","trial":296,"didAnswer":true,"imgDirection":"left","reactionTime":682,"correctAnswer":true},{"block":22,"image":"d7ori_15_left_9.0_jit11_0.9.jpg","trial":297,"didAnswer":true,"imgDirection":"left","reactionTime":605,"correctAnswer":true},{"block":22,"image":"d7ori_19_left_9.0_jit11_0.9.jpg","trial":298,"didAnswer":true,"imgDirection":"left","reactionTime":782,"correctAnswer":false},{"block":22,"image":"lf8Left8_low.jpg","trial":299,"didAnswer":true,"imgDirection":"left","reactionTime":468,"correctAnswer":true},{"block":22,"image":"d7ori_2_right_9.0_jit11_0.9.jpg","trial":300,"didAnswer":true,"imgDirection":"right","reactionTime":602,"correctAnswer":true},{"block":22,"image":"d7ori_18_right_9.0_jit11_0.9.jpg","trial":301,"didAnswer":true,"imgDirection":"right","reactionTime":523,"correctAnswer":true},{"block":22,"image":"d7ori_11_left_9.0_jit11_0.9.jpg","trial":302,"didAnswer":true,"imgDirection":"left","reactionTime":743,"correctAnswer":false},{"block":22,"image":"d7ori_3_left_9.0_jit11_0.9.jpg","trial":303,"didAnswer":true,"imgDirection":"left","reactionTime":738,"correctAnswer":false},{"block":22,"image":"d7ori_6_right_9.0_jit11_0.9.jpg","trial":304,"didAnswer":true,"imgDirection":"right","reactionTime":575,"correctAnswer":true},{"block":22,"image":"d7ori_22_right_9.0_jit11_0.9.jpg","trial":305,"didAnswer":true,"imgDirection":"right","reactionTime":722,"correctAnswer":true},{"block":22,"image":"d7ori_10_right_9.0_jit11_0.9.jpg","trial":306,"didAnswer":true,"imgDirection":"right","reactionTime":664,"correctAnswer":false},{"block":22,"image":"d7ori_7_left_9.0_jit11_0.9.jpg","trial":307,"didAnswer":true,"imgDirection":"left","reactionTime":605,"correctAnswer":true},{"block":22,"image":"d7ori_14_right_9.0_jit11_0.9.jpg","trial":308,"didAnswer":true,"imgDirection":"right","reactionTime":687,"correctAnswer":true},{"block":23,"image":"d7ori_17_right_9.0_jit13_0.9.jpg","trial":309,"didAnswer":true,"imgDirection":"right","reactionTime":961,"correctAnswer":true},{"block":23,"image":"d7ori_20_left_9.0_jit13_0.9.jpg","trial":310,"didAnswer":true,"imgDirection":"left","reactionTime":660,"correctAnswer":false},{"block":23,"image":"d7ori_13_right_9.0_jit13_0.9.jpg","trial":311,"didAnswer":true,"imgDirection":"right","reactionTime":543,"correctAnswer":true},{"block":23,"image":"d7ori_24_left_9.0_jit13_0.9.jpg","trial":312,"didAnswer":true,"imgDirection":"left","reactionTime":519,"correctAnswer":true},{"block":23,"image":"d7ori_1_right_9.0_jit13_0.9.jpg","trial":313,"didAnswer":true,"imgDirection":"right","reactionTime":519,"correctAnswer":true},{"block":23,"image":"d7Right7_low.jpg","trial":314,"didAnswer":true,"imgDirection":"right","reactionTime":493,"correctAnswer":true},{"block":23,"image":"d7ori_5_right_9.0_jit13_0.9.jpg","trial":315,"didAnswer":true,"imgDirection":"right","reactionTime":771,"correctAnswer":true},{"block":23,"image":"d18Right8NoB_low.jpg","trial":316,"didAnswer":true,"imgDirection":"right","reactionTime":697,"correctAnswer":true},{"block":23,"image":"d7ori_21_right_9.0_jit13_0.9.jpg","trial":317,"didAnswer":true,"imgDirection":"right","reactionTime":524,"correctAnswer":true},{"block":23,"image":"d7ori_12_left_9.0_jit13_0.9.jpg","trial":318,"didAnswer":true,"imgDirection":"left","reactionTime":539,"correctAnswer":false},{"block":23,"image":"d7ori_8_left_9.0_jit13_0.9.jpg","trial":319,"didAnswer":true,"imgDirection":"left","reactionTime":547,"correctAnswer":false},{"block":23,"image":"d7ori_4_left_9.0_jit13_0.9.jpg","trial":320,"didAnswer":true,"imgDirection":"left","reactionTime":579,"correctAnswer":false},{"block":23,"image":"d7ori_9_right_9.0_jit13_0.9.jpg","trial":321,"didAnswer":true,"imgDirection":"right","reactionTime":508,"correctAnswer":true},{"block":23,"image":"d7ori_16_left_9.0_jit13_0.9.jpg","trial":322,"didAnswer":true,"imgDirection":"left","reactionTime":546,"correctAnswer":false},{"block":24,"image":"d7ori_24_left_9.0_jit15_0.9.jpg","trial":323,"didAnswer":true,"imgDirection":"left","reactionTime":978,"correctAnswer":false},{"block":24,"image":"d7ori_4_left_9.0_jit15_0.9.jpg","trial":324,"didAnswer":true,"imgDirection":"left","reactionTime":573,"correctAnswer":false},{"block":24,"image":"d7ori_20_left_9.0_jit15_0.9.jpg","trial":325,"didAnswer":true,"imgDirection":"left","reactionTime":575,"correctAnswer":true},{"block":24,"image":"d7ori_8_left_9.0_jit15_0.9.jpg","trial":326,"didAnswer":true,"imgDirection":"left","reactionTime":447,"correctAnswer":false},{"block":24,"image":"d7ori_17_right_9.0_jit15_0.9.jpg","trial":327,"didAnswer":true,"imgDirection":"right","reactionTime":844,"correctAnswer":false},{"block":24,"image":"lf20Left8NoB_low.jpg","trial":328,"didAnswer":true,"imgDirection":"left","reactionTime":623,"correctAnswer":true},{"block":24,"image":"d7ori_9_right_9.0_jit15_0.9.jpg","trial":329,"didAnswer":true,"imgDirection":"right","reactionTime":630,"correctAnswer":false},{"block":24,"image":"d7ori_1_right_9.0_jit15_0.9.jpg","trial":330,"didAnswer":true,"imgDirection":"right","reactionTime":664,"correctAnswer":true},{"block":24,"image":"d7ori_12_left_9.0_jit15_0.9.jpg","trial":331,"didAnswer":true,"imgDirection":"left","reactionTime":547,"correctAnswer":true},{"block":24,"image":"d7ori_5_right_9.0_jit15_0.9.jpg","trial":332,"didAnswer":true,"imgDirection":"right","reactionTime":571,"correctAnswer":false},{"block":24,"image":"d7ori_13_right_9.0_jit15_0.9.jpg","trial":333,"didAnswer":true,"imgDirection":"right","reactionTime":546,"correctAnswer":true},{"block":24,"image":"d1Right1_low.jpg","trial":334,"didAnswer":true,"imgDirection":"right","reactionTime":459,"correctAnswer":true},{"block":24,"image":"d7ori_16_left_9.0_jit15_0.9.jpg","trial":335,"didAnswer":true,"imgDirection":"left","reactionTime":553,"correctAnswer":true},{"block":24,"image":"d7ori_21_right_9.0_jit15_0.9.jpg","trial":336,"didAnswer":true,"imgDirection":"right","reactionTime":480,"correctAnswer":true}],"browserInfo":{"windowInfo":{"width":1920,"height":969},"navigatorInfo":{"oscpu":"Windows NT 6.1; WOW64","onLine":true,"vendor":"","appName":"Netscape","buildID":"20170518000419","plugins":{"0":{"0":{},"1":{}}},"product":"Gecko","language":"cs","platform":"Win32","languages":["cs","en-US","en"],"mimeTypes":{"0":{},"1":{}},"userAgent":"Mozilla/5.0 (Windows NT 6.1; WOW64; rv:53.0) Gecko/20100101 Firefox/53.0","vendorSub":"","appVersion":"5.0 (Windows)","doNotTrack":"unspecified","productSub":"20100101","appCodeName":"Mozilla","geolocation":{},"permissions":{},"mediaDevices":{},"cookieEnabled":true,"serviceWorker":{"controller":null},"hardwareConcurrency":4}}}