{"id":13,"finished":true,"user":"aneta","test":"Jovi4","started":null,"ended":null,"data":[{"block":1,"image":"d0ori_right_9.0_0.9_0.jpg","trial":1,"didAnswer":true,"imgDirection":"right","reactionTime":1452,"correctAnswer":true},{"block":1,"image":"d0ori_right_9.0_0.9_1.jpg","trial":2,"didAnswer":true,"imgDirection":"right","reactionTime":1745,"correctAnswer":true},{"block":1,"image":"d0ori_right_9.0_0.9_2.jpg","trial":3,"didAnswer":true,"imgDirection":"right","reactionTime":1679,"correctAnswer":true},{"block":1,"image":"d0ori_right_9.0_0.9_3.jpg","trial":4,"didAnswer":false,"imgDirection":"right","reactionTime":2015,"correctAnswer":null},{"block":1,"image":"d0ori_right_9.0_0.9_4.jpg","trial":5,"didAnswer":true,"imgDirection":"right","reactionTime":1845,"correctAnswer":true},{"block":1,"image":"d0ori_right_9.0_0.9_5.jpg","trial":6,"didAnswer":true,"imgDirection":"right","reactionTime":1269,"correctAnswer":true},{"block":1,"image":"d0ori_left_9.0_0.9_0.jpg","trial":7,"didAnswer":true,"imgDirection":"left","reactionTime":1661,"correctAnswer":true},{"block":1,"image":"d0ori_left_9.0_0.9_1.jpg","trial":8,"didAnswer":true,"imgDirection":"left","reactionTime":1191,"correctAnswer":true},{"block":1,"image":"d0ori_left_9.0_0.9_2.jpg","trial":9,"didAnswer":true,"imgDirection":"left","reactionTime":971,"correctAnswer":true},{"block":1,"image":"d0ori_left_9.0_0.9_3.jpg","trial":10,"didAnswer":false,"imgDirection":"left","reactionTime":2008,"correctAnswer":null},{"block":1,"image":"d0ori_left_9.0_0.9_4.jpg","trial":11,"didAnswer":false,"imgDirection":"left","reactionTime":2000,"correctAnswer":null},{"block":1,"image":"d0ori_left_9.0_0.9_5.jpg","trial":12,"didAnswer":false,"imgDirection":"left","reactionTime":2006,"correctAnswer":null},{"block":1,"image":"d6Right6_low.jpg","trial":13,"didAnswer":true,"imgDirection":"right","reactionTime":769,"correctAnswer":true},{"block":1,"image":"d14Right4NoB_low.jpg","trial":14,"didAnswer":true,"imgDirection":"right","reactionTime":941,"correctAnswer":true},{"block":2,"image":"d7ori_1_left_9.0_jit7_0.9.jpg","trial":15,"didAnswer":true,"imgDirection":"left","reactionTime":706,"correctAnswer":true},{"block":2,"image":"d7ori_5_left_9.0_jit7_0.9.jpg","trial":16,"didAnswer":true,"imgDirection":"left","reactionTime":1830,"correctAnswer":true},{"block":2,"image":"d7ori_9_left_9.0_jit7_0.9.jpg","trial":17,"didAnswer":true,"imgDirection":"left","reactionTime":1050,"correctAnswer":true},{"block":2,"image":"d7ori_13_left_9.0_jit7_0.9.jpg","trial":18,"didAnswer":true,"imgDirection":"left","reactionTime":1264,"correctAnswer":true},{"block":2,"image":"d7ori_17_left_9.0_jit7_0.9.jpg","trial":19,"didAnswer":true,"imgDirection":"left","reactionTime":1133,"correctAnswer":false},{"block":2,"image":"d7ori_21_left_9.0_jit7_0.9.jpg","trial":20,"didAnswer":true,"imgDirection":"left","reactionTime":1075,"correctAnswer":true},{"block":2,"image":"d7ori_4_right_9.0_jit7_0.9.jpg","trial":21,"didAnswer":true,"imgDirection":"right","reactionTime":1187,"correctAnswer":false},{"block":2,"image":"d7ori_8_right_9.0_jit7_0.9.jpg","trial":22,"didAnswer":true,"imgDirection":"right","reactionTime":1240,"correctAnswer":false},{"block":2,"image":"d7ori_12_right_9.0_jit7_0.9.jpg","trial":23,"didAnswer":true,"imgDirection":"right","reactionTime":1145,"correctAnswer":true},{"block":2,"image":"d7ori_16_right_9.0_jit7_0.9.jpg","trial":24,"didAnswer":true,"imgDirection":"right","reactionTime":1044,"correctAnswer":true},{"block":2,"image":"d7ori_20_right_9.0_jit7_0.9.jpg","trial":25,"didAnswer":true,"imgDirection":"right","reactionTime":1065,"correctAnswer":true},{"block":2,"image":"d7ori_24_right_9.0_jit7_0.9.jpg","trial":26,"didAnswer":true,"imgDirection":"right","reactionTime":1441,"correctAnswer":true},{"block":2,"image":"lf5Left5_low.jpg","trial":27,"didAnswer":true,"imgDirection":"left","reactionTime":1709,"correctAnswer":false},{"block":2,"image":"lf18Left6NoB_low.jpg","trial":28,"didAnswer":true,"imgDirection":"left","reactionTime":573,"correctAnswer":true},{"block":3,"image":"left-d7ori_1_left_9.0_jit9_0.9.jpg","trial":29,"didAnswer":false,"imgDirection":"left","reactionTime":2005,"correctAnswer":null},{"block":3,"image":"left-d7ori_5_left_9.0_jit9_0.9.jpg","trial":30,"didAnswer":true,"imgDirection":"left","reactionTime":1457,"correctAnswer":true},{"block":3,"image":"left-d7ori_9_left_9.0_jit9_0.9.jpg","trial":31,"didAnswer":true,"imgDirection":"left","reactionTime":1470,"correctAnswer":true},{"block":3,"image":"left-d7ori_13_left_9.0_jit9_0.9.jpg","trial":32,"didAnswer":true,"imgDirection":"left","reactionTime":1890,"correctAnswer":true},{"block":3,"image":"left-d7ori_17_left_9.0_jit9_0.9.jpg","trial":33,"didAnswer":true,"imgDirection":"left","reactionTime":1062,"correctAnswer":false},{"block":3,"image":"left-d7ori_21_left_9.0_jit9_0.9.jpg","trial":34,"didAnswer":true,"imgDirection":"left","reactionTime":1364,"correctAnswer":true},{"block":3,"image":"right-d7ori_4_right_9.0_jit9_0.9.jpg","trial":35,"didAnswer":true,"imgDirection":"right","reactionTime":704,"correctAnswer":true},{"block":3,"image":"right-d7ori_8_right_9.0_jit9_0.9.jpg","trial":36,"didAnswer":true,"imgDirection":"right","reactionTime":1299,"correctAnswer":true},{"block":3,"image":"right-d7ori_12_right_9.0_jit9_0.9.jpg","trial":37,"didAnswer":true,"imgDirection":"right","reactionTime":1690,"correctAnswer":true},{"block":3,"image":"right-d7ori_16_right_9.0_jit9_0.9.jpg","trial":38,"didAnswer":true,"imgDirection":"right","reactionTime":1710,"correctAnswer":true},{"block":3,"image":"right-d7ori_20_right_9.0_jit9_0.9.jpg","trial":39,"didAnswer":false,"imgDirection":"right","reactionTime":2010,"correctAnswer":null},{"block":3,"image":"right-d7ori_24_right_9.0_jit9_0.9.jpg","trial":40,"didAnswer":true,"imgDirection":"right","reactionTime":1154,"correctAnswer":false},{"block":3,"image":"lf2Left2_low.jpg","trial":41,"didAnswer":true,"imgDirection":"left","reactionTime":984,"correctAnswer":true},{"block":3,"image":"lf23Left11NoB_low.jpg","trial":42,"didAnswer":true,"imgDirection":"left","reactionTime":593,"correctAnswer":true},{"block":4,"image":"d7ori_2_left_9.0_jit11_0.9.jpg","trial":43,"didAnswer":true,"imgDirection":"left","reactionTime":1130,"correctAnswer":true},{"block":4,"image":"d7ori_6_left_9.0_jit11_0.9.jpg","trial":44,"didAnswer":true,"imgDirection":"left","reactionTime":1206,"correctAnswer":false},{"block":4,"image":"d7ori_10_left_9.0_jit11_0.9.jpg","trial":45,"didAnswer":false,"imgDirection":"left","reactionTime":2000,"correctAnswer":null},{"block":4,"image":"d7ori_14_left_9.0_jit11_0.9.jpg","trial":46,"didAnswer":true,"imgDirection":"left","reactionTime":929,"correctAnswer":true},{"block":4,"image":"d7ori_18_left_9.0_jit11_0.9.jpg","trial":47,"didAnswer":true,"imgDirection":"left","reactionTime":1166,"correctAnswer":false},{"block":4,"image":"d7ori_22_left_9.0_jit11_0.9.jpg","trial":48,"didAnswer":true,"imgDirection":"left","reactionTime":844,"correctAnswer":true},{"block":4,"image":"d7ori_3_right_9.0_jit11_0.9.jpg","trial":49,"didAnswer":true,"imgDirection":"right","reactionTime":1850,"correctAnswer":true},{"block":4,"image":"d7ori_7_right_9.0_jit11_0.9.jpg","trial":50,"didAnswer":true,"imgDirection":"right","reactionTime":1593,"correctAnswer":false},{"block":4,"image":"d7ori_11_right_9.0_jit11_0.9.jpg","trial":51,"didAnswer":true,"imgDirection":"right","reactionTime":1622,"correctAnswer":true},{"block":4,"image":"d7ori_15_right_9.0_jit11_0.9.jpg","trial":52,"didAnswer":true,"imgDirection":"right","reactionTime":1277,"correctAnswer":false},{"block":4,"image":"d7ori_19_right_9.0_jit11_0.9.jpg","trial":53,"didAnswer":true,"imgDirection":"right","reactionTime":853,"correctAnswer":true},{"block":4,"image":"d7ori_23_right_9.0_jit11_0.9.jpg","trial":54,"didAnswer":true,"imgDirection":"right","reactionTime":1144,"correctAnswer":false},{"block":4,"image":"lf10Left10_low.jpg","trial":55,"didAnswer":true,"imgDirection":"left","reactionTime":1001,"correctAnswer":true},{"block":4,"image":"d10Right0NoB_low.jpg","trial":56,"didAnswer":true,"imgDirection":"right","reactionTime":752,"correctAnswer":true},{"block":5,"image":"d7ori_1_left_9.0_jit13_0.9.jpg","trial":57,"didAnswer":true,"imgDirection":"left","reactionTime":839,"correctAnswer":true},{"block":5,"image":"d7ori_5_left_9.0_jit13_0.9.jpg","trial":58,"didAnswer":true,"imgDirection":"left","reactionTime":1083,"correctAnswer":false},{"block":5,"image":"d7ori_9_left_9.0_jit13_0.9.jpg","trial":59,"didAnswer":true,"imgDirection":"left","reactionTime":1192,"correctAnswer":false},{"block":5,"image":"d7ori_13_left_9.0_jit13_0.9.jpg","trial":60,"didAnswer":true,"imgDirection":"left","reactionTime":892,"correctAnswer":true},{"block":5,"image":"d7ori_17_left_9.0_jit13_0.9.jpg","trial":61,"didAnswer":true,"imgDirection":"left","reactionTime":988,"correctAnswer":false},{"block":5,"image":"d7ori_21_left_9.0_jit13_0.9.jpg","trial":62,"didAnswer":true,"imgDirection":"left","reactionTime":1317,"correctAnswer":false},{"block":5,"image":"d7ori_4_right_9.0_jit13_0.9.jpg","trial":63,"didAnswer":true,"imgDirection":"right","reactionTime":866,"correctAnswer":true},{"block":5,"image":"d7ori_8_right_9.0_jit13_0.9.jpg","trial":64,"didAnswer":true,"imgDirection":"right","reactionTime":1518,"correctAnswer":true},{"block":5,"image":"d7ori_12_right_9.0_jit13_0.9.jpg","trial":65,"didAnswer":true,"imgDirection":"right","reactionTime":1530,"correctAnswer":true},{"block":5,"image":"d7ori_16_right_9.0_jit13_0.9.jpg","trial":66,"didAnswer":true,"imgDirection":"right","reactionTime":1474,"correctAnswer":true},{"block":5,"image":"d7ori_20_right_9.0_jit13_0.9.jpg","trial":67,"didAnswer":true,"imgDirection":"right","reactionTime":1438,"correctAnswer":true},{"block":5,"image":"d7ori_24_right_9.0_jit13_0.9.jpg","trial":68,"didAnswer":true,"imgDirection":"right","reactionTime":917,"correctAnswer":true},{"block":5,"image":"d4Right4_low.jpg","trial":69,"didAnswer":true,"imgDirection":"right","reactionTime":798,"correctAnswer":true},{"block":5,"image":"lf13Left1NoB_low.jpg","trial":70,"didAnswer":true,"imgDirection":"left","reactionTime":777,"correctAnswer":true},{"block":6,"image":"d7ori_1_left_9.0_jit15_0.9.jpg","trial":71,"didAnswer":true,"imgDirection":"left","reactionTime":914,"correctAnswer":false},{"block":6,"image":"d7ori_5_left_9.0_jit15_0.9.jpg","trial":72,"didAnswer":true,"imgDirection":"left","reactionTime":1659,"correctAnswer":false},{"block":6,"image":"d7ori_9_left_9.0_jit15_0.9.jpg","trial":73,"didAnswer":true,"imgDirection":"left","reactionTime":1313,"correctAnswer":false},{"block":6,"image":"d7ori_13_left_9.0_jit15_0.9.jpg","trial":74,"didAnswer":false,"imgDirection":"left","reactionTime":2001,"correctAnswer":null},{"block":6,"image":"d7ori_17_left_9.0_jit15_0.9.jpg","trial":75,"didAnswer":true,"imgDirection":"left","reactionTime":892,"correctAnswer":false},{"block":6,"image":"d7ori_21_left_9.0_jit15_0.9.jpg","trial":76,"didAnswer":true,"imgDirection":"left","reactionTime":852,"correctAnswer":false},{"block":6,"image":"d7ori_4_right_9.0_jit15_0.9.jpg","trial":77,"didAnswer":true,"imgDirection":"right","reactionTime":578,"correctAnswer":true},{"block":6,"image":"d7ori_8_right_9.0_jit15_0.9.jpg","trial":78,"didAnswer":true,"imgDirection":"right","reactionTime":1599,"correctAnswer":true},{"block":6,"image":"d7ori_12_right_9.0_jit15_0.9.jpg","trial":79,"didAnswer":true,"imgDirection":"right","reactionTime":969,"correctAnswer":false},{"block":6,"image":"d7ori_16_right_9.0_jit15_0.9.jpg","trial":80,"didAnswer":true,"imgDirection":"right","reactionTime":735,"correctAnswer":true},{"block":6,"image":"d7ori_20_right_9.0_jit15_0.9.jpg","trial":81,"didAnswer":true,"imgDirection":"right","reactionTime":1453,"correctAnswer":true},{"block":6,"image":"d7ori_24_right_9.0_jit15_0.9.jpg","trial":82,"didAnswer":true,"imgDirection":"right","reactionTime":1187,"correctAnswer":true},{"block":6,"image":"lf6Left6_low.jpg","trial":83,"didAnswer":true,"imgDirection":"left","reactionTime":752,"correctAnswer":true},{"block":6,"image":"d15Right5NoB_low.jpg","trial":84,"didAnswer":true,"imgDirection":"right","reactionTime":484,"correctAnswer":true},{"block":7,"image":"d0ori_right_9.0_0.9_6.jpg","trial":85,"didAnswer":true,"imgDirection":"right","reactionTime":717,"correctAnswer":true},{"block":7,"image":"d0ori_right_9.0_0.9_7.jpg","trial":86,"didAnswer":true,"imgDirection":"right","reactionTime":1045,"correctAnswer":true},{"block":7,"image":"d0ori_right_9.0_0.9_8.jpg","trial":87,"didAnswer":true,"imgDirection":"right","reactionTime":734,"correctAnswer":true},{"block":7,"image":"d0ori_right_9.0_0.9_9.jpg","trial":88,"didAnswer":true,"imgDirection":"right","reactionTime":566,"correctAnswer":true},{"block":7,"image":"d0ori_right_9.0_0.9_10.jpg","trial":89,"didAnswer":true,"imgDirection":"right","reactionTime":864,"correctAnswer":true},{"block":7,"image":"d0ori_right_9.0_0.9_11.jpg","trial":90,"didAnswer":true,"imgDirection":"right","reactionTime":770,"correctAnswer":true},{"block":7,"image":"d0ori_left_9.0_0.9_6.jpg","trial":91,"didAnswer":true,"imgDirection":"left","reactionTime":781,"correctAnswer":true},{"block":7,"image":"d0ori_left_9.0_0.9_7.jpg","trial":92,"didAnswer":true,"imgDirection":"left","reactionTime":689,"correctAnswer":true},{"block":7,"image":"d0ori_left_9.0_0.9_8.jpg","trial":93,"didAnswer":true,"imgDirection":"left","reactionTime":782,"correctAnswer":true},{"block":7,"image":"d0ori_left_9.0_0.9_9.jpg","trial":94,"didAnswer":true,"imgDirection":"left","reactionTime":720,"correctAnswer":true},{"block":7,"image":"d0ori_left_9.0_0.9_10.jpg","trial":95,"didAnswer":true,"imgDirection":"left","reactionTime":824,"correctAnswer":true},{"block":7,"image":"d0ori_left_9.0_0.9_11.jpg","trial":96,"didAnswer":true,"imgDirection":"left","reactionTime":612,"correctAnswer":true},{"block":7,"image":"d11Right11_low.jpg","trial":97,"didAnswer":true,"imgDirection":"right","reactionTime":808,"correctAnswer":true},{"block":7,"image":"d11Right1NoB_low.jpg","trial":98,"didAnswer":true,"imgDirection":"right","reactionTime":808,"correctAnswer":true},{"block":8,"image":"d7ori_2_left_9.0_jit7_0.9.jpg","trial":99,"didAnswer":true,"imgDirection":"left","reactionTime":752,"correctAnswer":true},{"block":8,"image":"d7ori_6_left_9.0_jit7_0.9.jpg","trial":100,"didAnswer":true,"imgDirection":"left","reactionTime":1139,"correctAnswer":true},{"block":8,"image":"d7ori_10_left_9.0_jit7_0.9.jpg","trial":101,"didAnswer":true,"imgDirection":"left","reactionTime":662,"correctAnswer":true},{"block":8,"image":"d7ori_14_left_9.0_jit7_0.9.jpg","trial":102,"didAnswer":true,"imgDirection":"left","reactionTime":1250,"correctAnswer":true},{"block":8,"image":"d7ori_18_left_9.0_jit7_0.9.jpg","trial":103,"didAnswer":true,"imgDirection":"left","reactionTime":909,"correctAnswer":true},{"block":8,"image":"d7ori_22_left_9.0_jit7_0.9.jpg","trial":104,"didAnswer":true,"imgDirection":"left","reactionTime":1081,"correctAnswer":false},{"block":8,"image":"d7ori_3_right_9.0_jit7_0.9.jpg","trial":105,"didAnswer":true,"imgDirection":"right","reactionTime":751,"correctAnswer":true},{"block":8,"image":"d7ori_7_right_9.0_jit7_0.9.jpg","trial":106,"didAnswer":true,"imgDirection":"right","reactionTime":1146,"correctAnswer":true},{"block":8,"image":"d7ori_11_right_9.0_jit7_0.9.jpg","trial":107,"didAnswer":true,"imgDirection":"right","reactionTime":906,"correctAnswer":true},{"block":8,"image":"d7ori_15_right_9.0_jit7_0.9.jpg","trial":108,"didAnswer":true,"imgDirection":"right","reactionTime":918,"correctAnswer":true},{"block":8,"image":"d7ori_19_right_9.0_jit7_0.9.jpg","trial":109,"didAnswer":true,"imgDirection":"right","reactionTime":564,"correctAnswer":true},{"block":8,"image":"d7ori_23_right_9.0_jit7_0.9.jpg","trial":110,"didAnswer":true,"imgDirection":"right","reactionTime":830,"correctAnswer":true},{"block":8,"image":"d2Right2_low.jpg","trial":111,"didAnswer":true,"imgDirection":"right","reactionTime":562,"correctAnswer":true},{"block":8,"image":"lf16Left4NoB_low.jpg","trial":112,"didAnswer":true,"imgDirection":"left","reactionTime":549,"correctAnswer":true},{"block":9,"image":"left-d7ori_2_left_9.0_jit9_0.9.jpg","trial":113,"didAnswer":true,"imgDirection":"left","reactionTime":704,"correctAnswer":false},{"block":9,"image":"left-d7ori_6_left_9.0_jit9_0.9.jpg","trial":114,"didAnswer":true,"imgDirection":"left","reactionTime":598,"correctAnswer":false},{"block":9,"image":"left-d7ori_10_left_9.0_jit9_0.9.jpg","trial":115,"didAnswer":true,"imgDirection":"left","reactionTime":1323,"correctAnswer":true},{"block":9,"image":"left-d7ori_14_left_9.0_jit9_0.9.jpg","trial":116,"didAnswer":true,"imgDirection":"left","reactionTime":864,"correctAnswer":true},{"block":9,"image":"left-d7ori_18_left_9.0_jit9_0.9.jpg","trial":117,"didAnswer":true,"imgDirection":"left","reactionTime":658,"correctAnswer":true},{"block":9,"image":"left-d7ori_22_left_9.0_jit9_0.9.jpg","trial":118,"didAnswer":true,"imgDirection":"left","reactionTime":641,"correctAnswer":true},{"block":9,"image":"right-d7ori_3_right_9.0_jit9_0.9.jpg","trial":119,"didAnswer":true,"imgDirection":"right","reactionTime":956,"correctAnswer":false},{"block":9,"image":"right-d7ori_7_right_9.0_jit9_0.9.jpg","trial":120,"didAnswer":true,"imgDirection":"right","reactionTime":791,"correctAnswer":true},{"block":9,"image":"right-d7ori_11_right_9.0_jit9_0.9.jpg","trial":121,"didAnswer":true,"imgDirection":"right","reactionTime":1024,"correctAnswer":true},{"block":9,"image":"right-d7ori_15_right_9.0_jit9_0.9.jpg","trial":122,"didAnswer":true,"imgDirection":"right","reactionTime":1388,"correctAnswer":true},{"block":9,"image":"right-d7ori_19_right_9.0_jit9_0.9.jpg","trial":123,"didAnswer":true,"imgDirection":"right","reactionTime":1137,"correctAnswer":false},{"block":9,"image":"right-d7ori_23_right_9.0_jit9_0.9.jpg","trial":124,"didAnswer":true,"imgDirection":"right","reactionTime":740,"correctAnswer":true},{"block":9,"image":"lf9Left9_low.jpg","trial":125,"didAnswer":true,"imgDirection":"left","reactionTime":612,"correctAnswer":true},{"block":9,"image":"d19Right9NoB_low.jpg","trial":126,"didAnswer":true,"imgDirection":"right","reactionTime":424,"correctAnswer":true},{"block":10,"image":"d7ori_1_left_9.0_jit11_0.9.jpg","trial":127,"didAnswer":true,"imgDirection":"left","reactionTime":968,"correctAnswer":true},{"block":10,"image":"d7ori_5_left_9.0_jit11_0.9.jpg","trial":128,"didAnswer":true,"imgDirection":"left","reactionTime":721,"correctAnswer":false},{"block":10,"image":"d7ori_9_left_9.0_jit11_0.9.jpg","trial":129,"didAnswer":true,"imgDirection":"left","reactionTime":852,"correctAnswer":false},{"block":10,"image":"d7ori_13_left_9.0_jit11_0.9.jpg","trial":130,"didAnswer":true,"imgDirection":"left","reactionTime":891,"correctAnswer":true},{"block":10,"image":"d7ori_17_left_9.0_jit11_0.9.jpg","trial":131,"didAnswer":true,"imgDirection":"left","reactionTime":941,"correctAnswer":false},{"block":10,"image":"d7ori_21_left_9.0_jit11_0.9.jpg","trial":132,"didAnswer":true,"imgDirection":"left","reactionTime":796,"correctAnswer":false},{"block":10,"image":"d7ori_4_right_9.0_jit11_0.9.jpg","trial":133,"didAnswer":true,"imgDirection":"right","reactionTime":862,"correctAnswer":true},{"block":10,"image":"d7ori_8_right_9.0_jit11_0.9.jpg","trial":134,"didAnswer":true,"imgDirection":"right","reactionTime":705,"correctAnswer":true},{"block":10,"image":"d7ori_12_right_9.0_jit11_0.9.jpg","trial":135,"didAnswer":true,"imgDirection":"right","reactionTime":974,"correctAnswer":true},{"block":10,"image":"d7ori_16_right_9.0_jit11_0.9.jpg","trial":136,"didAnswer":true,"imgDirection":"right","reactionTime":718,"correctAnswer":true},{"block":10,"image":"d7ori_20_right_9.0_jit11_0.9.jpg","trial":137,"didAnswer":true,"imgDirection":"right","reactionTime":691,"correctAnswer":true},{"block":10,"image":"d7ori_24_right_9.0_jit11_0.9.jpg","trial":138,"didAnswer":true,"imgDirection":"right","reactionTime":1346,"correctAnswer":true},{"block":10,"image":"lf7Left7_low.jpg","trial":139,"didAnswer":true,"imgDirection":"left","reactionTime":641,"correctAnswer":true},{"block":10,"image":"d12Right2NoB_low.jpg","trial":140,"didAnswer":true,"imgDirection":"right","reactionTime":503,"correctAnswer":true},{"block":11,"image":"d7ori_2_left_9.0_jit13_0.9.jpg","trial":141,"didAnswer":true,"imgDirection":"left","reactionTime":707,"correctAnswer":false},{"block":11,"image":"d7ori_6_left_9.0_jit13_0.9.jpg","trial":142,"didAnswer":true,"imgDirection":"left","reactionTime":1034,"correctAnswer":true},{"block":11,"image":"d7ori_10_left_9.0_jit13_0.9.jpg","trial":143,"didAnswer":true,"imgDirection":"left","reactionTime":861,"correctAnswer":false},{"block":11,"image":"d7ori_14_left_9.0_jit13_0.9.jpg","trial":144,"didAnswer":true,"imgDirection":"left","reactionTime":982,"correctAnswer":false},{"block":11,"image":"d7ori_18_left_9.0_jit13_0.9.jpg","trial":145,"didAnswer":true,"imgDirection":"left","reactionTime":1002,"correctAnswer":false},{"block":11,"image":"d7ori_22_left_9.0_jit13_0.9.jpg","trial":146,"didAnswer":true,"imgDirection":"left","reactionTime":970,"correctAnswer":false},{"block":11,"image":"d7ori_3_right_9.0_jit13_0.9.jpg","trial":147,"didAnswer":true,"imgDirection":"right","reactionTime":1471,"correctAnswer":false},{"block":11,"image":"d7ori_7_right_9.0_jit13_0.9.jpg","trial":148,"didAnswer":true,"imgDirection":"right","reactionTime":1192,"correctAnswer":true},{"block":11,"image":"d7ori_11_right_9.0_jit13_0.9.jpg","trial":149,"didAnswer":true,"imgDirection":"right","reactionTime":1315,"correctAnswer":true},{"block":11,"image":"d7ori_15_right_9.0_jit13_0.9.jpg","trial":150,"didAnswer":true,"imgDirection":"right","reactionTime":1082,"correctAnswer":true},{"block":11,"image":"d7ori_19_right_9.0_jit13_0.9.jpg","trial":151,"didAnswer":true,"imgDirection":"right","reactionTime":1129,"correctAnswer":false},{"block":11,"image":"d7ori_23_right_9.0_jit13_0.9.jpg","trial":152,"didAnswer":true,"imgDirection":"right","reactionTime":909,"correctAnswer":true},{"block":11,"image":"d3Right3_low.jpg","trial":153,"didAnswer":true,"imgDirection":"right","reactionTime":594,"correctAnswer":true},{"block":11,"image":"lf15Left3NoB_low.jpg","trial":154,"didAnswer":true,"imgDirection":"left","reactionTime":639,"correctAnswer":true},{"block":12,"image":"d7ori_2_left_9.0_jit15_0.9.jpg","trial":155,"didAnswer":true,"imgDirection":"left","reactionTime":1113,"correctAnswer":true},{"block":12,"image":"d7ori_6_left_9.0_jit15_0.9.jpg","trial":156,"didAnswer":true,"imgDirection":"left","reactionTime":812,"correctAnswer":true},{"block":12,"image":"d7ori_10_left_9.0_jit15_0.9.jpg","trial":157,"didAnswer":true,"imgDirection":"left","reactionTime":938,"correctAnswer":true},{"block":12,"image":"d7ori_14_left_9.0_jit15_0.9.jpg","trial":158,"didAnswer":true,"imgDirection":"left","reactionTime":849,"correctAnswer":true},{"block":12,"image":"d7ori_18_left_9.0_jit15_0.9.jpg","trial":159,"didAnswer":true,"imgDirection":"left","reactionTime":1012,"correctAnswer":true},{"block":12,"image":"d7ori_22_left_9.0_jit15_0.9.jpg","trial":160,"didAnswer":true,"imgDirection":"left","reactionTime":693,"correctAnswer":true},{"block":12,"image":"d7ori_3_right_9.0_jit15_0.9.jpg","trial":161,"didAnswer":true,"imgDirection":"right","reactionTime":768,"correctAnswer":false},{"block":12,"image":"d7ori_7_right_9.0_jit15_0.9.jpg","trial":162,"didAnswer":true,"imgDirection":"right","reactionTime":603,"correctAnswer":true},{"block":12,"image":"d7ori_11_right_9.0_jit15_0.9.jpg","trial":163,"didAnswer":true,"imgDirection":"right","reactionTime":727,"correctAnswer":true},{"block":12,"image":"d7ori_15_right_9.0_jit15_0.9.jpg","trial":164,"didAnswer":true,"imgDirection":"right","reactionTime":712,"correctAnswer":true},{"block":12,"image":"d7ori_19_right_9.0_jit15_0.9.jpg","trial":165,"didAnswer":true,"imgDirection":"right","reactionTime":753,"correctAnswer":false},{"block":12,"image":"d7ori_23_right_9.0_jit15_0.9.jpg","trial":166,"didAnswer":true,"imgDirection":"right","reactionTime":693,"correctAnswer":true},{"block":12,"image":"lf4Left4_low.jpg","trial":167,"didAnswer":true,"imgDirection":"left","reactionTime":807,"correctAnswer":true},{"block":12,"image":"lf21Left9NoB_low.jpg","trial":168,"didAnswer":true,"imgDirection":"left","reactionTime":672,"correctAnswer":true},{"block":13,"image":"d0ori_right_9.0_0.9_12.jpg","trial":169,"didAnswer":true,"imgDirection":"right","reactionTime":842,"correctAnswer":true},{"block":13,"image":"d0ori_right_9.0_0.9_13.jpg","trial":170,"didAnswer":true,"imgDirection":"right","reactionTime":897,"correctAnswer":true},{"block":13,"image":"d0ori_right_9.0_0.9_14.jpg","trial":171,"didAnswer":true,"imgDirection":"right","reactionTime":1249,"correctAnswer":true},{"block":13,"image":"d0ori_right_9.0_0.9_15.jpg","trial":172,"didAnswer":true,"imgDirection":"right","reactionTime":849,"correctAnswer":true},{"block":13,"image":"d0ori_right_9.0_0.9_16.jpg","trial":173,"didAnswer":true,"imgDirection":"right","reactionTime":800,"correctAnswer":true},{"block":13,"image":"d0ori_right_9.0_0.9_17.jpg","trial":174,"didAnswer":true,"imgDirection":"right","reactionTime":1058,"correctAnswer":true},{"block":13,"image":"d0ori_left_9.0_0.9_12.jpg","trial":175,"didAnswer":true,"imgDirection":"left","reactionTime":1570,"correctAnswer":false},{"block":13,"image":"d0ori_left_9.0_0.9_13.jpg","trial":176,"didAnswer":true,"imgDirection":"left","reactionTime":562,"correctAnswer":true},{"block":13,"image":"d0ori_left_9.0_0.9_14.jpg","trial":177,"didAnswer":true,"imgDirection":"left","reactionTime":768,"correctAnswer":true},{"block":13,"image":"d0ori_left_9.0_0.9_15.jpg","trial":178,"didAnswer":true,"imgDirection":"left","reactionTime":843,"correctAnswer":false},{"block":13,"image":"d0ori_left_9.0_0.9_16.jpg","trial":179,"didAnswer":true,"imgDirection":"left","reactionTime":977,"correctAnswer":true},{"block":13,"image":"d0ori_left_9.0_0.9_17.jpg","trial":180,"didAnswer":true,"imgDirection":"left","reactionTime":659,"correctAnswer":true},{"block":13,"image":"d0Right0_low.jpg","trial":181,"didAnswer":true,"imgDirection":"right","reactionTime":688,"correctAnswer":true},{"block":13,"image":"d17Right7NoB_low.jpg","trial":182,"didAnswer":true,"imgDirection":"right","reactionTime":546,"correctAnswer":true},{"block":14,"image":"d7ori_3_left_9.0_jit7_0.9.jpg","trial":183,"didAnswer":true,"imgDirection":"left","reactionTime":750,"correctAnswer":true},{"block":14,"image":"d7ori_7_left_9.0_jit7_0.9.jpg","trial":184,"didAnswer":true,"imgDirection":"left","reactionTime":796,"correctAnswer":true},{"block":14,"image":"d7ori_11_left_9.0_jit7_0.9.jpg","trial":185,"didAnswer":true,"imgDirection":"left","reactionTime":540,"correctAnswer":true},{"block":14,"image":"d7ori_15_left_9.0_jit7_0.9.jpg","trial":186,"didAnswer":true,"imgDirection":"left","reactionTime":695,"correctAnswer":false},{"block":14,"image":"d7ori_19_left_9.0_jit7_0.9.jpg","trial":187,"didAnswer":true,"imgDirection":"left","reactionTime":737,"correctAnswer":true},{"block":14,"image":"d7ori_23_left_9.0_jit7_0.9.jpg","trial":188,"didAnswer":true,"imgDirection":"left","reactionTime":859,"correctAnswer":true},{"block":14,"image":"d7ori_2_right_9.0_jit7_0.9.jpg","trial":189,"didAnswer":true,"imgDirection":"right","reactionTime":953,"correctAnswer":true},{"block":14,"image":"d7ori_6_right_9.0_jit7_0.9.jpg","trial":190,"didAnswer":true,"imgDirection":"right","reactionTime":658,"correctAnswer":true},{"block":14,"image":"d7ori_10_right_9.0_jit7_0.9.jpg","trial":191,"didAnswer":true,"imgDirection":"right","reactionTime":911,"correctAnswer":true},{"block":14,"image":"d7ori_14_right_9.0_jit7_0.9.jpg","trial":192,"didAnswer":true,"imgDirection":"right","reactionTime":702,"correctAnswer":true},{"block":14,"image":"d7ori_18_right_9.0_jit7_0.9.jpg","trial":193,"didAnswer":true,"imgDirection":"right","reactionTime":754,"correctAnswer":true},{"block":14,"image":"d7ori_22_right_9.0_jit7_0.9.jpg","trial":194,"didAnswer":true,"imgDirection":"right","reactionTime":832,"correctAnswer":true},{"block":14,"image":"d10Right10_low.jpg","trial":195,"didAnswer":true,"imgDirection":"right","reactionTime":691,"correctAnswer":true},{"block":14,"image":"d23Right11NoB_low.jpg","trial":196,"didAnswer":true,"imgDirection":"right","reactionTime":620,"correctAnswer":true},{"block":15,"image":"left-d7ori_3_left_9.0_jit9_0.9.jpg","trial":197,"didAnswer":true,"imgDirection":"left","reactionTime":928,"correctAnswer":true},{"block":15,"image":"left-d7ori_7_left_9.0_jit9_0.9.jpg","trial":198,"didAnswer":true,"imgDirection":"left","reactionTime":661,"correctAnswer":false},{"block":15,"image":"left-d7ori_11_left_9.0_jit9_0.9.jpg","trial":199,"didAnswer":true,"imgDirection":"left","reactionTime":501,"correctAnswer":false},{"block":15,"image":"left-d7ori_15_left_9.0_jit9_0.9.jpg","trial":200,"didAnswer":true,"imgDirection":"left","reactionTime":908,"correctAnswer":true},{"block":15,"image":"left-d7ori_19_left_9.0_jit9_0.9.jpg","trial":201,"didAnswer":true,"imgDirection":"left","reactionTime":751,"correctAnswer":true},{"block":15,"image":"left-d7ori_23_left_9.0_jit9_0.9.jpg","trial":202,"didAnswer":true,"imgDirection":"left","reactionTime":690,"correctAnswer":false},{"block":15,"image":"right-d7ori_2_right_9.0_jit9_0.9.jpg","trial":203,"didAnswer":true,"imgDirection":"right","reactionTime":685,"correctAnswer":true},{"block":15,"image":"right-d7ori_6_right_9.0_jit9_0.9.jpg","trial":204,"didAnswer":true,"imgDirection":"right","reactionTime":440,"correctAnswer":true},{"block":15,"image":"right-d7ori_10_right_9.0_jit9_0.9.jpg","trial":205,"didAnswer":true,"imgDirection":"right","reactionTime":880,"correctAnswer":true},{"block":15,"image":"right-d7ori_14_right_9.0_jit9_0.9.jpg","trial":206,"didAnswer":true,"imgDirection":"right","reactionTime":626,"correctAnswer":true},{"block":15,"image":"right-d7ori_18_right_9.0_jit9_0.9.jpg","trial":207,"didAnswer":true,"imgDirection":"right","reactionTime":830,"correctAnswer":true},{"block":15,"image":"right-d7ori_22_right_9.0_jit9_0.9.jpg","trial":208,"didAnswer":true,"imgDirection":"right","reactionTime":701,"correctAnswer":true},{"block":15,"image":"lf11Left11_low.jpg","trial":209,"didAnswer":true,"imgDirection":"left","reactionTime":705,"correctAnswer":true},{"block":15,"image":"lf22Left10NoB_low.jpg","trial":210,"didAnswer":true,"imgDirection":"left","reactionTime":532,"correctAnswer":true},{"block":16,"image":"d7ori_4_left_9.0_jit11_0.9.jpg","trial":211,"didAnswer":true,"imgDirection":"left","reactionTime":1051,"correctAnswer":true},{"block":16,"image":"d7ori_8_left_9.0_jit11_0.9.jpg","trial":212,"didAnswer":true,"imgDirection":"left","reactionTime":830,"correctAnswer":true},{"block":16,"image":"d7ori_12_left_9.0_jit11_0.9.jpg","trial":213,"didAnswer":true,"imgDirection":"left","reactionTime":660,"correctAnswer":true},{"block":16,"image":"d7ori_16_left_9.0_jit11_0.9.jpg","trial":214,"didAnswer":true,"imgDirection":"left","reactionTime":818,"correctAnswer":true},{"block":16,"image":"d7ori_20_left_9.0_jit11_0.9.jpg","trial":215,"didAnswer":true,"imgDirection":"left","reactionTime":857,"correctAnswer":true},{"block":16,"image":"d7ori_24_left_9.0_jit11_0.9.jpg","trial":216,"didAnswer":true,"imgDirection":"left","reactionTime":1051,"correctAnswer":true},{"block":16,"image":"d7ori_1_right_9.0_jit11_0.9.jpg","trial":217,"didAnswer":true,"imgDirection":"right","reactionTime":743,"correctAnswer":true},{"block":16,"image":"d7ori_5_right_9.0_jit11_0.9.jpg","trial":218,"didAnswer":true,"imgDirection":"right","reactionTime":860,"correctAnswer":true},{"block":16,"image":"d7ori_9_right_9.0_jit11_0.9.jpg","trial":219,"didAnswer":true,"imgDirection":"right","reactionTime":1236,"correctAnswer":true},{"block":16,"image":"d7ori_13_right_9.0_jit11_0.9.jpg","trial":220,"didAnswer":true,"imgDirection":"right","reactionTime":879,"correctAnswer":true},{"block":16,"image":"d7ori_17_right_9.0_jit11_0.9.jpg","trial":221,"didAnswer":true,"imgDirection":"right","reactionTime":799,"correctAnswer":false},{"block":16,"image":"d7ori_21_right_9.0_jit11_0.9.jpg","trial":222,"didAnswer":true,"imgDirection":"right","reactionTime":1000,"correctAnswer":true},{"block":16,"image":"lf3Left3_low.jpg","trial":223,"didAnswer":true,"imgDirection":"left","reactionTime":772,"correctAnswer":true},{"block":16,"image":"lf12Left0NoB_low.jpg","trial":224,"didAnswer":true,"imgDirection":"left","reactionTime":515,"correctAnswer":true},{"block":17,"image":"d7ori_3_left_9.0_jit13_0.9.jpg","trial":225,"didAnswer":true,"imgDirection":"left","reactionTime":987,"correctAnswer":false},{"block":17,"image":"d7ori_7_left_9.0_jit13_0.9.jpg","trial":226,"didAnswer":true,"imgDirection":"left","reactionTime":653,"correctAnswer":false},{"block":17,"image":"d7ori_11_left_9.0_jit13_0.9.jpg","trial":227,"didAnswer":true,"imgDirection":"left","reactionTime":628,"correctAnswer":false},{"block":17,"image":"d7ori_15_left_9.0_jit13_0.9.jpg","trial":228,"didAnswer":true,"imgDirection":"left","reactionTime":712,"correctAnswer":false},{"block":17,"image":"d7ori_19_left_9.0_jit13_0.9.jpg","trial":229,"didAnswer":true,"imgDirection":"left","reactionTime":798,"correctAnswer":false},{"block":17,"image":"d7ori_23_left_9.0_jit13_0.9.jpg","trial":230,"didAnswer":true,"imgDirection":"left","reactionTime":788,"correctAnswer":false},{"block":17,"image":"d7ori_2_right_9.0_jit13_0.9.jpg","trial":231,"didAnswer":true,"imgDirection":"right","reactionTime":584,"correctAnswer":true},{"block":17,"image":"d7ori_6_right_9.0_jit13_0.9.jpg","trial":232,"didAnswer":true,"imgDirection":"right","reactionTime":494,"correctAnswer":true},{"block":17,"image":"d7ori_10_right_9.0_jit13_0.9.jpg","trial":233,"didAnswer":true,"imgDirection":"right","reactionTime":494,"correctAnswer":true},{"block":17,"image":"d7ori_14_right_9.0_jit13_0.9.jpg","trial":234,"didAnswer":true,"imgDirection":"right","reactionTime":704,"correctAnswer":true},{"block":17,"image":"d7ori_18_right_9.0_jit13_0.9.jpg","trial":235,"didAnswer":true,"imgDirection":"right","reactionTime":1107,"correctAnswer":true},{"block":17,"image":"d7ori_22_right_9.0_jit13_0.9.jpg","trial":236,"didAnswer":true,"imgDirection":"right","reactionTime":643,"correctAnswer":true},{"block":17,"image":"d5Right5_low.jpg","trial":237,"didAnswer":true,"imgDirection":"right","reactionTime":844,"correctAnswer":true},{"block":17,"image":"d16Right6NoB_low.jpg","trial":238,"didAnswer":true,"imgDirection":"right","reactionTime":548,"correctAnswer":true},{"block":18,"image":"d7ori_3_left_9.0_jit15_0.9.jpg","trial":239,"didAnswer":true,"imgDirection":"left","reactionTime":830,"correctAnswer":false},{"block":18,"image":"d7ori_7_left_9.0_jit15_0.9.jpg","trial":240,"didAnswer":true,"imgDirection":"left","reactionTime":832,"correctAnswer":true},{"block":18,"image":"d7ori_11_left_9.0_jit15_0.9.jpg","trial":241,"didAnswer":true,"imgDirection":"left","reactionTime":828,"correctAnswer":true},{"block":18,"image":"d7ori_15_left_9.0_jit15_0.9.jpg","trial":242,"didAnswer":true,"imgDirection":"left","reactionTime":1066,"correctAnswer":true},{"block":18,"image":"d7ori_19_left_9.0_jit15_0.9.jpg","trial":243,"didAnswer":true,"imgDirection":"left","reactionTime":1263,"correctAnswer":true},{"block":18,"image":"d7ori_23_left_9.0_jit15_0.9.jpg","trial":244,"didAnswer":true,"imgDirection":"left","reactionTime":727,"correctAnswer":true},{"block":18,"image":"d7ori_2_right_9.0_jit15_0.9.jpg","trial":245,"didAnswer":true,"imgDirection":"right","reactionTime":780,"correctAnswer":true},{"block":18,"image":"d7ori_6_right_9.0_jit15_0.9.jpg","trial":246,"didAnswer":true,"imgDirection":"right","reactionTime":608,"correctAnswer":true},{"block":18,"image":"d7ori_10_right_9.0_jit15_0.9.jpg","trial":247,"didAnswer":true,"imgDirection":"right","reactionTime":816,"correctAnswer":true},{"block":18,"image":"d7ori_14_right_9.0_jit15_0.9.jpg","trial":248,"didAnswer":true,"imgDirection":"right","reactionTime":850,"correctAnswer":true},{"block":18,"image":"d7ori_18_right_9.0_jit15_0.9.jpg","trial":249,"didAnswer":true,"imgDirection":"right","reactionTime":547,"correctAnswer":true},{"block":18,"image":"d7ori_22_right_9.0_jit15_0.9.jpg","trial":250,"didAnswer":true,"imgDirection":"right","reactionTime":875,"correctAnswer":true},{"block":18,"image":"d8Right8_low.jpg","trial":251,"didAnswer":true,"imgDirection":"right","reactionTime":629,"correctAnswer":true},{"block":18,"image":"lf17Left5NoB_low.jpg","trial":252,"didAnswer":true,"imgDirection":"left","reactionTime":486,"correctAnswer":true},{"block":19,"image":"d0ori_right_9.0_0.9_18.jpg","trial":253,"didAnswer":true,"imgDirection":"right","reactionTime":644,"correctAnswer":true},{"block":19,"image":"d0ori_right_9.0_0.9_19.jpg","trial":254,"didAnswer":true,"imgDirection":"right","reactionTime":658,"correctAnswer":true},{"block":19,"image":"d0ori_right_9.0_0.9_20.jpg","trial":255,"didAnswer":true,"imgDirection":"right","reactionTime":640,"correctAnswer":true},{"block":19,"image":"d0ori_right_9.0_0.9_21.jpg","trial":256,"didAnswer":true,"imgDirection":"right","reactionTime":630,"correctAnswer":true},{"block":19,"image":"d0ori_right_9.0_0.9_22.jpg","trial":257,"didAnswer":true,"imgDirection":"right","reactionTime":648,"correctAnswer":true},{"block":19,"image":"d0ori_right_9.0_0.9_23.jpg","trial":258,"didAnswer":true,"imgDirection":"right","reactionTime":690,"correctAnswer":true},{"block":19,"image":"d0ori_left_9.0_0.9_18.jpg","trial":259,"didAnswer":true,"imgDirection":"left","reactionTime":591,"correctAnswer":false},{"block":19,"image":"d0ori_left_9.0_0.9_19.jpg","trial":260,"didAnswer":true,"imgDirection":"left","reactionTime":705,"correctAnswer":false},{"block":19,"image":"d0ori_left_9.0_0.9_20.jpg","trial":261,"didAnswer":true,"imgDirection":"left","reactionTime":905,"correctAnswer":false},{"block":19,"image":"d0ori_left_9.0_0.9_21.jpg","trial":262,"didAnswer":true,"imgDirection":"left","reactionTime":893,"correctAnswer":false},{"block":19,"image":"d0ori_left_9.0_0.9_22.jpg","trial":263,"didAnswer":true,"imgDirection":"left","reactionTime":862,"correctAnswer":true},{"block":19,"image":"d0ori_left_9.0_0.9_23.jpg","trial":264,"didAnswer":true,"imgDirection":"left","reactionTime":893,"correctAnswer":true},{"block":19,"image":"lf0Left0_low.jpg","trial":265,"didAnswer":true,"imgDirection":"left","reactionTime":594,"correctAnswer":true},{"block":19,"image":"d13Right3NoB_low.jpg","trial":266,"didAnswer":true,"imgDirection":"right","reactionTime":533,"correctAnswer":true},{"block":20,"image":"d7ori_4_left_9.0_jit7_0.9.jpg","trial":267,"didAnswer":true,"imgDirection":"left","reactionTime":970,"correctAnswer":true},{"block":20,"image":"d7ori_8_left_9.0_jit7_0.9.jpg","trial":268,"didAnswer":true,"imgDirection":"left","reactionTime":661,"correctAnswer":true},{"block":20,"image":"d7ori_12_left_9.0_jit7_0.9.jpg","trial":269,"didAnswer":true,"imgDirection":"left","reactionTime":1040,"correctAnswer":true},{"block":20,"image":"d7ori_16_left_9.0_jit7_0.9.jpg","trial":270,"didAnswer":true,"imgDirection":"left","reactionTime":940,"correctAnswer":true},{"block":20,"image":"d7ori_20_left_9.0_jit7_0.9.jpg","trial":271,"didAnswer":true,"imgDirection":"left","reactionTime":801,"correctAnswer":true},{"block":20,"image":"d7ori_24_left_9.0_jit7_0.9.jpg","trial":272,"didAnswer":true,"imgDirection":"left","reactionTime":953,"correctAnswer":true},{"block":20,"image":"d7ori_1_right_9.0_jit7_0.9.jpg","trial":273,"didAnswer":true,"imgDirection":"right","reactionTime":1127,"correctAnswer":false},{"block":20,"image":"d7ori_5_right_9.0_jit7_0.9.jpg","trial":274,"didAnswer":true,"imgDirection":"right","reactionTime":800,"correctAnswer":false},{"block":20,"image":"d7ori_9_right_9.0_jit7_0.9.jpg","trial":275,"didAnswer":true,"imgDirection":"right","reactionTime":924,"correctAnswer":true},{"block":20,"image":"d7ori_13_right_9.0_jit7_0.9.jpg","trial":276,"didAnswer":true,"imgDirection":"right","reactionTime":1047,"correctAnswer":true},{"block":20,"image":"d7ori_17_right_9.0_jit7_0.9.jpg","trial":277,"didAnswer":true,"imgDirection":"right","reactionTime":1543,"correctAnswer":true},{"block":20,"image":"d7ori_21_right_9.0_jit7_0.9.jpg","trial":278,"didAnswer":true,"imgDirection":"right","reactionTime":815,"correctAnswer":true},{"block":20,"image":"lf1Left1_low.jpg","trial":279,"didAnswer":true,"imgDirection":"left","reactionTime":593,"correctAnswer":true},{"block":20,"image":"d22Right10NoB_low.jpg","trial":280,"didAnswer":true,"imgDirection":"right","reactionTime":544,"correctAnswer":true},{"block":21,"image":"left-d7ori_4_left_9.0_jit9_0.9.jpg","trial":281,"didAnswer":true,"imgDirection":"left","reactionTime":812,"correctAnswer":true},{"block":21,"image":"left-d7ori_8_left_9.0_jit9_0.9.jpg","trial":282,"didAnswer":true,"imgDirection":"left","reactionTime":890,"correctAnswer":false},{"block":21,"image":"left-d7ori_12_left_9.0_jit9_0.9.jpg","trial":283,"didAnswer":true,"imgDirection":"left","reactionTime":1301,"correctAnswer":true},{"block":21,"image":"left-d7ori_16_left_9.0_jit9_0.9.jpg","trial":284,"didAnswer":true,"imgDirection":"left","reactionTime":692,"correctAnswer":false},{"block":21,"image":"left-d7ori_20_left_9.0_jit9_0.9.jpg","trial":285,"didAnswer":true,"imgDirection":"left","reactionTime":731,"correctAnswer":true},{"block":21,"image":"left-d7ori_24_left_9.0_jit9_0.9.jpg","trial":286,"didAnswer":true,"imgDirection":"left","reactionTime":914,"correctAnswer":true},{"block":21,"image":"right-d7ori_1_right_9.0_jit9_0.9.jpg","trial":287,"didAnswer":true,"imgDirection":"right","reactionTime":939,"correctAnswer":true},{"block":21,"image":"right-d7ori_5_right_9.0_jit9_0.9.jpg","trial":288,"didAnswer":true,"imgDirection":"right","reactionTime":889,"correctAnswer":true},{"block":21,"image":"right-d7ori_9_right_9.0_jit9_0.9.jpg","trial":289,"didAnswer":true,"imgDirection":"right","reactionTime":591,"correctAnswer":true},{"block":21,"image":"right-d7ori_13_right_9.0_jit9_0.9.jpg","trial":290,"didAnswer":true,"imgDirection":"right","reactionTime":547,"correctAnswer":true},{"block":21,"image":"right-d7ori_17_right_9.0_jit9_0.9.jpg","trial":291,"didAnswer":true,"imgDirection":"right","reactionTime":750,"correctAnswer":true},{"block":21,"image":"right-d7ori_21_right_9.0_jit9_0.9.jpg","trial":292,"didAnswer":true,"imgDirection":"right","reactionTime":675,"correctAnswer":true},{"block":21,"image":"d9Right9_low.jpg","trial":293,"didAnswer":true,"imgDirection":"right","reactionTime":598,"correctAnswer":true},{"block":21,"image":"lf14Left2NoB_low.jpg","trial":294,"didAnswer":true,"imgDirection":"left","reactionTime":519,"correctAnswer":true},{"block":22,"image":"d7ori_3_left_9.0_jit11_0.9.jpg","trial":295,"didAnswer":true,"imgDirection":"left","reactionTime":905,"correctAnswer":true},{"block":22,"image":"d7ori_7_left_9.0_jit11_0.9.jpg","trial":296,"didAnswer":true,"imgDirection":"left","reactionTime":417,"correctAnswer":true},{"block":22,"image":"d7ori_11_left_9.0_jit11_0.9.jpg","trial":297,"didAnswer":true,"imgDirection":"left","reactionTime":468,"correctAnswer":true},{"block":22,"image":"d7ori_15_left_9.0_jit11_0.9.jpg","trial":298,"didAnswer":true,"imgDirection":"left","reactionTime":501,"correctAnswer":true},{"block":22,"image":"d7ori_19_left_9.0_jit11_0.9.jpg","trial":299,"didAnswer":true,"imgDirection":"left","reactionTime":502,"correctAnswer":false},{"block":22,"image":"d7ori_23_left_9.0_jit11_0.9.jpg","trial":300,"didAnswer":true,"imgDirection":"left","reactionTime":579,"correctAnswer":false},{"block":22,"image":"d7ori_2_right_9.0_jit11_0.9.jpg","trial":301,"didAnswer":true,"imgDirection":"right","reactionTime":357,"correctAnswer":true},{"block":22,"image":"d7ori_6_right_9.0_jit11_0.9.jpg","trial":302,"didAnswer":true,"imgDirection":"right","reactionTime":451,"correctAnswer":true},{"block":22,"image":"d7ori_10_right_9.0_jit11_0.9.jpg","trial":303,"didAnswer":true,"imgDirection":"right","reactionTime":343,"correctAnswer":true},{"block":22,"image":"d7ori_14_right_9.0_jit11_0.9.jpg","trial":304,"didAnswer":true,"imgDirection":"right","reactionTime":689,"correctAnswer":false},{"block":22,"image":"d7ori_18_right_9.0_jit11_0.9.jpg","trial":305,"didAnswer":true,"imgDirection":"right","reactionTime":641,"correctAnswer":true},{"block":22,"image":"d7ori_22_right_9.0_jit11_0.9.jpg","trial":306,"didAnswer":true,"imgDirection":"right","reactionTime":733,"correctAnswer":true},{"block":22,"image":"lf8Left8_low.jpg","trial":307,"didAnswer":true,"imgDirection":"left","reactionTime":628,"correctAnswer":true},{"block":22,"image":"lf19Left7NoB_low.jpg","trial":308,"didAnswer":true,"imgDirection":"left","reactionTime":622,"correctAnswer":true},{"block":23,"image":"d7ori_4_left_9.0_jit13_0.9.jpg","trial":309,"didAnswer":true,"imgDirection":"left","reactionTime":861,"correctAnswer":false},{"block":23,"image":"d7ori_8_left_9.0_jit13_0.9.jpg","trial":310,"didAnswer":true,"imgDirection":"left","reactionTime":728,"correctAnswer":false},{"block":23,"image":"d7ori_12_left_9.0_jit13_0.9.jpg","trial":311,"didAnswer":true,"imgDirection":"left","reactionTime":907,"correctAnswer":true},{"block":23,"image":"d7ori_16_left_9.0_jit13_0.9.jpg","trial":312,"didAnswer":true,"imgDirection":"left","reactionTime":1016,"correctAnswer":true},{"block":23,"image":"d7ori_20_left_9.0_jit13_0.9.jpg","trial":313,"didAnswer":true,"imgDirection":"left","reactionTime":744,"correctAnswer":true},{"block":23,"image":"d7ori_24_left_9.0_jit13_0.9.jpg","trial":314,"didAnswer":true,"imgDirection":"left","reactionTime":768,"correctAnswer":true},{"block":23,"image":"d7ori_1_right_9.0_jit13_0.9.jpg","trial":315,"didAnswer":true,"imgDirection":"right","reactionTime":830,"correctAnswer":true},{"block":23,"image":"d7ori_5_right_9.0_jit13_0.9.jpg","trial":316,"didAnswer":true,"imgDirection":"right","reactionTime":864,"correctAnswer":true},{"block":23,"image":"d7ori_9_right_9.0_jit13_0.9.jpg","trial":317,"didAnswer":true,"imgDirection":"right","reactionTime":717,"correctAnswer":true},{"block":23,"image":"d7ori_13_right_9.0_jit13_0.9.jpg","trial":318,"didAnswer":true,"imgDirection":"right","reactionTime":722,"correctAnswer":true},{"block":23,"image":"d7ori_17_right_9.0_jit13_0.9.jpg","trial":319,"didAnswer":true,"imgDirection":"right","reactionTime":735,"correctAnswer":true},{"block":23,"image":"d7ori_21_right_9.0_jit13_0.9.jpg","trial":320,"didAnswer":true,"imgDirection":"right","reactionTime":779,"correctAnswer":true},{"block":23,"image":"d7Right7_low.jpg","trial":321,"didAnswer":true,"imgDirection":"right","reactionTime":595,"correctAnswer":true},{"block":23,"image":"d18Right8NoB_low.jpg","trial":322,"didAnswer":true,"imgDirection":"right","reactionTime":499,"correctAnswer":true},{"block":24,"image":"d7ori_4_left_9.0_jit15_0.9.jpg","trial":323,"didAnswer":true,"imgDirection":"left","reactionTime":671,"correctAnswer":false},{"block":24,"image":"d7ori_8_left_9.0_jit15_0.9.jpg","trial":324,"didAnswer":true,"imgDirection":"left","reactionTime":511,"correctAnswer":false},{"block":24,"image":"d7ori_12_left_9.0_jit15_0.9.jpg","trial":325,"didAnswer":true,"imgDirection":"left","reactionTime":530,"correctAnswer":false},{"block":24,"image":"d7ori_16_left_9.0_jit15_0.9.jpg","trial":326,"didAnswer":true,"imgDirection":"left","reactionTime":732,"correctAnswer":true},{"block":24,"image":"d7ori_20_left_9.0_jit15_0.9.jpg","trial":327,"didAnswer":true,"imgDirection":"left","reactionTime":562,"correctAnswer":true},{"block":24,"image":"d7ori_24_left_9.0_jit15_0.9.jpg","trial":328,"didAnswer":true,"imgDirection":"left","reactionTime":810,"correctAnswer":true},{"block":24,"image":"d7ori_1_right_9.0_jit15_0.9.jpg","trial":329,"didAnswer":true,"imgDirection":"right","reactionTime":646,"correctAnswer":false},{"block":24,"image":"d7ori_5_right_9.0_jit15_0.9.jpg","trial":330,"didAnswer":true,"imgDirection":"right","reactionTime":841,"correctAnswer":true},{"block":24,"image":"d7ori_9_right_9.0_jit15_0.9.jpg","trial":331,"didAnswer":true,"imgDirection":"right","reactionTime":878,"correctAnswer":true},{"block":24,"image":"d7ori_13_right_9.0_jit15_0.9.jpg","trial":332,"didAnswer":true,"imgDirection":"right","reactionTime":629,"correctAnswer":false},{"block":24,"image":"d7ori_17_right_9.0_jit15_0.9.jpg","trial":333,"didAnswer":true,"imgDirection":"right","reactionTime":689,"correctAnswer":true},{"block":24,"image":"d7ori_21_right_9.0_jit15_0.9.jpg","trial":334,"didAnswer":true,"imgDirection":"right","reactionTime":802,"correctAnswer":true},{"block":24,"image":"d1Right1_low.jpg","trial":335,"didAnswer":true,"imgDirection":"right","reactionTime":656,"correctAnswer":true},{"block":24,"image":"lf20Left8NoB_low.jpg","trial":336,"didAnswer":true,"imgDirection":"left","reactionTime":618,"correctAnswer":true}],"browserInfo":{"windowInfo":{"width":1920,"height":950},"navigatorInfo":{"onLine":true,"vendor":"Google Inc.","appName":"Netscape","plugins":{"0":{"0":{}},"1":{"0":{},"1":{}},"2":{"0":{}},"3":{"0":{},"1":{}},"4":{"0":{}}},"product":"Gecko","storage":{},"language":"cs","platform":"Win32","languages":["cs-CZ","cs","en"],"mimeTypes":{"0":{},"1":{},"2":{},"3":{},"4":{},"5":{},"6":{}},"userAgent":"Mozilla/5.0 (Windows NT 6.1; WOW64) AppleWebKit/537.36 (KHTML, like Gecko) Chrome/56.0.2924.87 Safari/537.36","vendorSub":"","appVersion":"5.0 (Windows NT 6.1; WOW64) AppleWebKit/537.36 (KHTML, like Gecko) Chrome/56.0.2924.87 Safari/537.36","doNotTrack":null,"productSub":"20030107","appCodeName":"Mozilla","credentials":{},"geolocation":{},"permissions":{},"mediaDevices":{},"presentation":{},"cookieEnabled":true,"serviceWorker":{},"maxTouchPoints":0,"hardwareConcurrency":6,"webkitTemporaryStorage":{},"webkitPersistentStorage":{}}}}