{"id":50,"finished":true,"user":"marta","test":"Jovi4","started":"2017-05-23T12:22:20.390Z","ended":"2017-05-23T12:38:47.927Z","data":[{"block":1,"image":"d0ori_left_9.0_0.9_2.jpg","trial":1,"didAnswer":true,"imgDirection":"left","reactionTime":1204,"correctAnswer":true},{"block":1,"image":"d0ori_right_9.0_0.9_3.jpg","trial":2,"didAnswer":true,"imgDirection":"right","reactionTime":1094,"correctAnswer":true},{"block":1,"image":"d0ori_left_9.0_0.9_3.jpg","trial":3,"didAnswer":true,"imgDirection":"left","reactionTime":1651,"correctAnswer":true},{"block":1,"image":"d0ori_right_9.0_0.9_1.jpg","trial":4,"didAnswer":true,"imgDirection":"right","reactionTime":800,"correctAnswer":true},{"block":1,"image":"d0ori_left_9.0_0.9_1.jpg","trial":5,"didAnswer":true,"imgDirection":"left","reactionTime":1336,"correctAnswer":true},{"block":1,"image":"d14Right4NoB_low.jpg","trial":6,"didAnswer":true,"imgDirection":"right","reactionTime":688,"correctAnswer":true},{"block":1,"image":"d0ori_left_9.0_0.9_5.jpg","trial":7,"didAnswer":true,"imgDirection":"left","reactionTime":738,"correctAnswer":true},{"block":1,"image":"d0ori_right_9.0_0.9_4.jpg","trial":8,"didAnswer":true,"imgDirection":"right","reactionTime":1087,"correctAnswer":true},{"block":1,"image":"d6Right6_low.jpg","trial":9,"didAnswer":true,"imgDirection":"right","reactionTime":1038,"correctAnswer":true},{"block":1,"image":"d0ori_right_9.0_0.9_2.jpg","trial":10,"didAnswer":true,"imgDirection":"right","reactionTime":1015,"correctAnswer":true},{"block":1,"image":"d0ori_right_9.0_0.9_0.jpg","trial":11,"didAnswer":true,"imgDirection":"right","reactionTime":1033,"correctAnswer":true},{"block":1,"image":"d0ori_right_9.0_0.9_5.jpg","trial":12,"didAnswer":true,"imgDirection":"right","reactionTime":1066,"correctAnswer":true},{"block":1,"image":"d0ori_left_9.0_0.9_4.jpg","trial":13,"didAnswer":true,"imgDirection":"left","reactionTime":1043,"correctAnswer":true},{"block":1,"image":"d0ori_left_9.0_0.9_0.jpg","trial":14,"didAnswer":true,"imgDirection":"left","reactionTime":1016,"correctAnswer":true},{"block":2,"image":"d7ori_5_left_9.0_jit7_0.9.jpg","trial":15,"didAnswer":false,"imgDirection":"left","reactionTime":2011,"correctAnswer":null},{"block":2,"image":"d7ori_4_right_9.0_jit7_0.9.jpg","trial":16,"didAnswer":true,"imgDirection":"right","reactionTime":1624,"correctAnswer":true},{"block":2,"image":"d7ori_13_left_9.0_jit7_0.9.jpg","trial":17,"didAnswer":true,"imgDirection":"left","reactionTime":1664,"correctAnswer":true},{"block":2,"image":"d7ori_20_right_9.0_jit7_0.9.jpg","trial":18,"didAnswer":true,"imgDirection":"right","reactionTime":939,"correctAnswer":true},{"block":2,"image":"d7ori_21_left_9.0_jit7_0.9.jpg","trial":19,"didAnswer":true,"imgDirection":"left","reactionTime":1057,"correctAnswer":true},{"block":2,"image":"d7ori_12_right_9.0_jit7_0.9.jpg","trial":20,"didAnswer":true,"imgDirection":"right","reactionTime":714,"correctAnswer":true},{"block":2,"image":"d7ori_9_left_9.0_jit7_0.9.jpg","trial":21,"didAnswer":true,"imgDirection":"left","reactionTime":719,"correctAnswer":true},{"block":2,"image":"lf18Left6NoB_low.jpg","trial":22,"didAnswer":true,"imgDirection":"left","reactionTime":799,"correctAnswer":true},{"block":2,"image":"d7ori_8_right_9.0_jit7_0.9.jpg","trial":23,"didAnswer":true,"imgDirection":"right","reactionTime":724,"correctAnswer":true},{"block":2,"image":"d7ori_1_left_9.0_jit7_0.9.jpg","trial":24,"didAnswer":true,"imgDirection":"left","reactionTime":580,"correctAnswer":true},{"block":2,"image":"d7ori_16_right_9.0_jit7_0.9.jpg","trial":25,"didAnswer":true,"imgDirection":"right","reactionTime":670,"correctAnswer":true},{"block":2,"image":"d7ori_24_right_9.0_jit7_0.9.jpg","trial":26,"didAnswer":true,"imgDirection":"right","reactionTime":675,"correctAnswer":false},{"block":2,"image":"d7ori_17_left_9.0_jit7_0.9.jpg","trial":27,"didAnswer":true,"imgDirection":"left","reactionTime":656,"correctAnswer":false},{"block":2,"image":"lf5Left5_low.jpg","trial":28,"didAnswer":true,"imgDirection":"left","reactionTime":624,"correctAnswer":true},{"block":3,"image":"left-d7ori_13_left_9.0_jit9_0.9.jpg","trial":29,"didAnswer":true,"imgDirection":"left","reactionTime":983,"correctAnswer":true},{"block":3,"image":"right-d7ori_12_right_9.0_jit9_0.9.jpg","trial":30,"didAnswer":true,"imgDirection":"right","reactionTime":639,"correctAnswer":true},{"block":3,"image":"left-d7ori_1_left_9.0_jit9_0.9.jpg","trial":31,"didAnswer":true,"imgDirection":"left","reactionTime":1084,"correctAnswer":false},{"block":3,"image":"left-d7ori_17_left_9.0_jit9_0.9.jpg","trial":32,"didAnswer":true,"imgDirection":"left","reactionTime":814,"correctAnswer":true},{"block":3,"image":"lf2Left2_low.jpg","trial":33,"didAnswer":true,"imgDirection":"left","reactionTime":722,"correctAnswer":true},{"block":3,"image":"right-d7ori_16_right_9.0_jit9_0.9.jpg","trial":34,"didAnswer":true,"imgDirection":"right","reactionTime":1627,"correctAnswer":true},{"block":3,"image":"right-d7ori_24_right_9.0_jit9_0.9.jpg","trial":35,"didAnswer":true,"imgDirection":"right","reactionTime":1067,"correctAnswer":true},{"block":3,"image":"right-d7ori_20_right_9.0_jit9_0.9.jpg","trial":36,"didAnswer":true,"imgDirection":"right","reactionTime":894,"correctAnswer":true},{"block":3,"image":"right-d7ori_8_right_9.0_jit9_0.9.jpg","trial":37,"didAnswer":true,"imgDirection":"right","reactionTime":860,"correctAnswer":true},{"block":3,"image":"left-d7ori_21_left_9.0_jit9_0.9.jpg","trial":38,"didAnswer":true,"imgDirection":"left","reactionTime":986,"correctAnswer":false},{"block":3,"image":"left-d7ori_5_left_9.0_jit9_0.9.jpg","trial":39,"didAnswer":true,"imgDirection":"left","reactionTime":1179,"correctAnswer":false},{"block":3,"image":"lf23Left11NoB_low.jpg","trial":40,"didAnswer":true,"imgDirection":"left","reactionTime":643,"correctAnswer":true},{"block":3,"image":"left-d7ori_9_left_9.0_jit9_0.9.jpg","trial":41,"didAnswer":true,"imgDirection":"left","reactionTime":1210,"correctAnswer":true},{"block":3,"image":"right-d7ori_4_right_9.0_jit9_0.9.jpg","trial":42,"didAnswer":true,"imgDirection":"right","reactionTime":920,"correctAnswer":true},{"block":4,"image":"d7ori_10_left_9.0_jit11_0.9.jpg","trial":43,"didAnswer":true,"imgDirection":"left","reactionTime":1244,"correctAnswer":true},{"block":4,"image":"d7ori_23_right_9.0_jit11_0.9.jpg","trial":44,"didAnswer":true,"imgDirection":"right","reactionTime":1255,"correctAnswer":false},{"block":4,"image":"d7ori_3_right_9.0_jit11_0.9.jpg","trial":45,"didAnswer":true,"imgDirection":"right","reactionTime":864,"correctAnswer":true},{"block":4,"image":"d7ori_7_right_9.0_jit11_0.9.jpg","trial":46,"didAnswer":false,"imgDirection":"right","reactionTime":2003,"correctAnswer":null},{"block":4,"image":"lf10Left10_low.jpg","trial":47,"didAnswer":true,"imgDirection":"left","reactionTime":638,"correctAnswer":true},{"block":4,"image":"d7ori_14_left_9.0_jit11_0.9.jpg","trial":48,"didAnswer":true,"imgDirection":"left","reactionTime":946,"correctAnswer":true},{"block":4,"image":"d7ori_22_left_9.0_jit11_0.9.jpg","trial":49,"didAnswer":true,"imgDirection":"left","reactionTime":648,"correctAnswer":true},{"block":4,"image":"d7ori_18_left_9.0_jit11_0.9.jpg","trial":50,"didAnswer":true,"imgDirection":"left","reactionTime":921,"correctAnswer":true},{"block":4,"image":"d10Right0NoB_low.jpg","trial":51,"didAnswer":true,"imgDirection":"right","reactionTime":719,"correctAnswer":true},{"block":4,"image":"d7ori_11_right_9.0_jit11_0.9.jpg","trial":52,"didAnswer":true,"imgDirection":"right","reactionTime":799,"correctAnswer":true},{"block":4,"image":"d7ori_19_right_9.0_jit11_0.9.jpg","trial":53,"didAnswer":true,"imgDirection":"right","reactionTime":909,"correctAnswer":true},{"block":4,"image":"d7ori_6_left_9.0_jit11_0.9.jpg","trial":54,"didAnswer":true,"imgDirection":"left","reactionTime":984,"correctAnswer":true},{"block":4,"image":"d7ori_15_right_9.0_jit11_0.9.jpg","trial":55,"didAnswer":true,"imgDirection":"right","reactionTime":829,"correctAnswer":true},{"block":4,"image":"d7ori_2_left_9.0_jit11_0.9.jpg","trial":56,"didAnswer":true,"imgDirection":"left","reactionTime":680,"correctAnswer":true},{"block":5,"image":"d7ori_20_right_9.0_jit13_0.9.jpg","trial":57,"didAnswer":true,"imgDirection":"right","reactionTime":927,"correctAnswer":true},{"block":5,"image":"d7ori_1_left_9.0_jit13_0.9.jpg","trial":58,"didAnswer":false,"imgDirection":"left","reactionTime":2012,"correctAnswer":null},{"block":5,"image":"d7ori_13_left_9.0_jit13_0.9.jpg","trial":59,"didAnswer":true,"imgDirection":"left","reactionTime":863,"correctAnswer":true},{"block":5,"image":"d4Right4_low.jpg","trial":60,"didAnswer":true,"imgDirection":"right","reactionTime":577,"correctAnswer":true},{"block":5,"image":"d7ori_5_left_9.0_jit13_0.9.jpg","trial":61,"didAnswer":true,"imgDirection":"left","reactionTime":941,"correctAnswer":false},{"block":5,"image":"d7ori_4_right_9.0_jit13_0.9.jpg","trial":62,"didAnswer":true,"imgDirection":"right","reactionTime":718,"correctAnswer":false},{"block":5,"image":"d7ori_8_right_9.0_jit13_0.9.jpg","trial":63,"didAnswer":true,"imgDirection":"right","reactionTime":689,"correctAnswer":true},{"block":5,"image":"d7ori_12_right_9.0_jit13_0.9.jpg","trial":64,"didAnswer":true,"imgDirection":"right","reactionTime":1069,"correctAnswer":false},{"block":5,"image":"lf13Left1NoB_low.jpg","trial":65,"didAnswer":true,"imgDirection":"left","reactionTime":696,"correctAnswer":true},{"block":5,"image":"d7ori_21_left_9.0_jit13_0.9.jpg","trial":66,"didAnswer":true,"imgDirection":"left","reactionTime":828,"correctAnswer":true},{"block":5,"image":"d7ori_16_right_9.0_jit13_0.9.jpg","trial":67,"didAnswer":true,"imgDirection":"right","reactionTime":985,"correctAnswer":true},{"block":5,"image":"d7ori_9_left_9.0_jit13_0.9.jpg","trial":68,"didAnswer":false,"imgDirection":"left","reactionTime":2006,"correctAnswer":null},{"block":5,"image":"d7ori_17_left_9.0_jit13_0.9.jpg","trial":69,"didAnswer":true,"imgDirection":"left","reactionTime":860,"correctAnswer":true},{"block":5,"image":"d7ori_24_right_9.0_jit13_0.9.jpg","trial":70,"didAnswer":true,"imgDirection":"right","reactionTime":895,"correctAnswer":true},{"block":6,"image":"d15Right5NoB_low.jpg","trial":71,"didAnswer":true,"imgDirection":"right","reactionTime":697,"correctAnswer":true},{"block":6,"image":"d7ori_5_left_9.0_jit15_0.9.jpg","trial":72,"didAnswer":true,"imgDirection":"left","reactionTime":1753,"correctAnswer":true},{"block":6,"image":"d7ori_20_right_9.0_jit15_0.9.jpg","trial":73,"didAnswer":true,"imgDirection":"right","reactionTime":2000,"correctAnswer":true},{"block":6,"image":"d7ori_1_left_9.0_jit15_0.9.jpg","trial":74,"didAnswer":false,"imgDirection":"left","reactionTime":2012,"correctAnswer":null},{"block":6,"image":"d7ori_24_right_9.0_jit15_0.9.jpg","trial":75,"didAnswer":true,"imgDirection":"right","reactionTime":1114,"correctAnswer":true},{"block":6,"image":"d7ori_21_left_9.0_jit15_0.9.jpg","trial":76,"didAnswer":true,"imgDirection":"left","reactionTime":768,"correctAnswer":false},{"block":6,"image":"d7ori_16_right_9.0_jit15_0.9.jpg","trial":77,"didAnswer":true,"imgDirection":"right","reactionTime":1104,"correctAnswer":true},{"block":6,"image":"d7ori_9_left_9.0_jit15_0.9.jpg","trial":78,"didAnswer":false,"imgDirection":"left","reactionTime":2015,"correctAnswer":null},{"block":6,"image":"d7ori_13_left_9.0_jit15_0.9.jpg","trial":79,"didAnswer":false,"imgDirection":"left","reactionTime":2015,"correctAnswer":null},{"block":6,"image":"d7ori_8_right_9.0_jit15_0.9.jpg","trial":80,"didAnswer":true,"imgDirection":"right","reactionTime":1222,"correctAnswer":false},{"block":6,"image":"d7ori_17_left_9.0_jit15_0.9.jpg","trial":81,"didAnswer":false,"imgDirection":"left","reactionTime":2003,"correctAnswer":null},{"block":6,"image":"d7ori_12_right_9.0_jit15_0.9.jpg","trial":82,"didAnswer":true,"imgDirection":"right","reactionTime":1100,"correctAnswer":true},{"block":6,"image":"lf6Left6_low.jpg","trial":83,"didAnswer":true,"imgDirection":"left","reactionTime":563,"correctAnswer":true},{"block":6,"image":"d7ori_4_right_9.0_jit15_0.9.jpg","trial":84,"didAnswer":false,"imgDirection":"right","reactionTime":2002,"correctAnswer":null},{"block":7,"image":"d0ori_right_9.0_0.9_9.jpg","trial":85,"didAnswer":true,"imgDirection":"right","reactionTime":987,"correctAnswer":true},{"block":7,"image":"d0ori_right_9.0_0.9_6.jpg","trial":86,"didAnswer":true,"imgDirection":"right","reactionTime":878,"correctAnswer":true},{"block":7,"image":"d0ori_left_9.0_0.9_9.jpg","trial":87,"didAnswer":true,"imgDirection":"left","reactionTime":1264,"correctAnswer":true},{"block":7,"image":"d0ori_left_9.0_0.9_10.jpg","trial":88,"didAnswer":true,"imgDirection":"left","reactionTime":969,"correctAnswer":false},{"block":7,"image":"d0ori_left_9.0_0.9_11.jpg","trial":89,"didAnswer":true,"imgDirection":"left","reactionTime":1145,"correctAnswer":true},{"block":7,"image":"d11Right1NoB_low.jpg","trial":90,"didAnswer":true,"imgDirection":"right","reactionTime":797,"correctAnswer":true},{"block":7,"image":"d11Right11_low.jpg","trial":91,"didAnswer":true,"imgDirection":"right","reactionTime":575,"correctAnswer":true},{"block":7,"image":"d0ori_right_9.0_0.9_10.jpg","trial":92,"didAnswer":true,"imgDirection":"right","reactionTime":1676,"correctAnswer":true},{"block":7,"image":"d0ori_left_9.0_0.9_6.jpg","trial":93,"didAnswer":true,"imgDirection":"left","reactionTime":938,"correctAnswer":true},{"block":7,"image":"d0ori_left_9.0_0.9_7.jpg","trial":94,"didAnswer":true,"imgDirection":"left","reactionTime":764,"correctAnswer":true},{"block":7,"image":"d0ori_right_9.0_0.9_11.jpg","trial":95,"didAnswer":true,"imgDirection":"right","reactionTime":768,"correctAnswer":true},{"block":7,"image":"d0ori_left_9.0_0.9_8.jpg","trial":96,"didAnswer":true,"imgDirection":"left","reactionTime":782,"correctAnswer":true},{"block":7,"image":"d0ori_right_9.0_0.9_8.jpg","trial":97,"didAnswer":true,"imgDirection":"right","reactionTime":612,"correctAnswer":true},{"block":7,"image":"d0ori_right_9.0_0.9_7.jpg","trial":98,"didAnswer":true,"imgDirection":"right","reactionTime":891,"correctAnswer":true},{"block":8,"image":"d7ori_14_left_9.0_jit7_0.9.jpg","trial":99,"didAnswer":true,"imgDirection":"left","reactionTime":1158,"correctAnswer":true},{"block":8,"image":"d7ori_19_right_9.0_jit7_0.9.jpg","trial":100,"didAnswer":true,"imgDirection":"right","reactionTime":687,"correctAnswer":true},{"block":8,"image":"d7ori_2_left_9.0_jit7_0.9.jpg","trial":101,"didAnswer":true,"imgDirection":"left","reactionTime":1035,"correctAnswer":true},{"block":8,"image":"d7ori_7_right_9.0_jit7_0.9.jpg","trial":102,"didAnswer":true,"imgDirection":"right","reactionTime":675,"correctAnswer":true},{"block":8,"image":"d7ori_23_right_9.0_jit7_0.9.jpg","trial":103,"didAnswer":true,"imgDirection":"right","reactionTime":1047,"correctAnswer":true},{"block":8,"image":"d7ori_18_left_9.0_jit7_0.9.jpg","trial":104,"didAnswer":true,"imgDirection":"left","reactionTime":644,"correctAnswer":true},{"block":8,"image":"d2Right2_low.jpg","trial":105,"didAnswer":true,"imgDirection":"right","reactionTime":595,"correctAnswer":true},{"block":8,"image":"d7ori_15_right_9.0_jit7_0.9.jpg","trial":106,"didAnswer":true,"imgDirection":"right","reactionTime":941,"correctAnswer":true},{"block":8,"image":"d7ori_11_right_9.0_jit7_0.9.jpg","trial":107,"didAnswer":true,"imgDirection":"right","reactionTime":811,"correctAnswer":true},{"block":8,"image":"d7ori_3_right_9.0_jit7_0.9.jpg","trial":108,"didAnswer":true,"imgDirection":"right","reactionTime":645,"correctAnswer":true},{"block":8,"image":"d7ori_10_left_9.0_jit7_0.9.jpg","trial":109,"didAnswer":true,"imgDirection":"left","reactionTime":875,"correctAnswer":true},{"block":8,"image":"lf16Left4NoB_low.jpg","trial":110,"didAnswer":true,"imgDirection":"left","reactionTime":713,"correctAnswer":true},{"block":8,"image":"d7ori_6_left_9.0_jit7_0.9.jpg","trial":111,"didAnswer":true,"imgDirection":"left","reactionTime":908,"correctAnswer":true},{"block":8,"image":"d7ori_22_left_9.0_jit7_0.9.jpg","trial":112,"didAnswer":true,"imgDirection":"left","reactionTime":704,"correctAnswer":false},{"block":9,"image":"d19Right9NoB_low.jpg","trial":113,"didAnswer":true,"imgDirection":"right","reactionTime":924,"correctAnswer":true},{"block":9,"image":"right-d7ori_3_right_9.0_jit9_0.9.jpg","trial":114,"didAnswer":true,"imgDirection":"right","reactionTime":765,"correctAnswer":true},{"block":9,"image":"left-d7ori_6_left_9.0_jit9_0.9.jpg","trial":115,"didAnswer":true,"imgDirection":"left","reactionTime":705,"correctAnswer":true},{"block":9,"image":"right-d7ori_23_right_9.0_jit9_0.9.jpg","trial":116,"didAnswer":true,"imgDirection":"right","reactionTime":592,"correctAnswer":true},{"block":9,"image":"left-d7ori_18_left_9.0_jit9_0.9.jpg","trial":117,"didAnswer":true,"imgDirection":"left","reactionTime":773,"correctAnswer":true},{"block":9,"image":"right-d7ori_7_right_9.0_jit9_0.9.jpg","trial":118,"didAnswer":true,"imgDirection":"right","reactionTime":971,"correctAnswer":true},{"block":9,"image":"right-d7ori_15_right_9.0_jit9_0.9.jpg","trial":119,"didAnswer":true,"imgDirection":"right","reactionTime":894,"correctAnswer":true},{"block":9,"image":"right-d7ori_11_right_9.0_jit9_0.9.jpg","trial":120,"didAnswer":true,"imgDirection":"right","reactionTime":855,"correctAnswer":true},{"block":9,"image":"left-d7ori_10_left_9.0_jit9_0.9.jpg","trial":121,"didAnswer":true,"imgDirection":"left","reactionTime":543,"correctAnswer":false},{"block":9,"image":"left-d7ori_22_left_9.0_jit9_0.9.jpg","trial":122,"didAnswer":true,"imgDirection":"left","reactionTime":828,"correctAnswer":true},{"block":9,"image":"lf9Left9_low.jpg","trial":123,"didAnswer":true,"imgDirection":"left","reactionTime":733,"correctAnswer":true},{"block":9,"image":"right-d7ori_19_right_9.0_jit9_0.9.jpg","trial":124,"didAnswer":true,"imgDirection":"right","reactionTime":547,"correctAnswer":false},{"block":9,"image":"left-d7ori_14_left_9.0_jit9_0.9.jpg","trial":125,"didAnswer":true,"imgDirection":"left","reactionTime":549,"correctAnswer":true},{"block":9,"image":"left-d7ori_2_left_9.0_jit9_0.9.jpg","trial":126,"didAnswer":true,"imgDirection":"left","reactionTime":574,"correctAnswer":true},{"block":10,"image":"d7ori_13_left_9.0_jit11_0.9.jpg","trial":127,"didAnswer":true,"imgDirection":"left","reactionTime":1546,"correctAnswer":true},{"block":10,"image":"d12Right2NoB_low.jpg","trial":128,"didAnswer":true,"imgDirection":"right","reactionTime":548,"correctAnswer":true},{"block":10,"image":"d7ori_8_right_9.0_jit11_0.9.jpg","trial":129,"didAnswer":true,"imgDirection":"right","reactionTime":750,"correctAnswer":true},{"block":10,"image":"d7ori_24_right_9.0_jit11_0.9.jpg","trial":130,"didAnswer":true,"imgDirection":"right","reactionTime":754,"correctAnswer":true},{"block":10,"image":"d7ori_9_left_9.0_jit11_0.9.jpg","trial":131,"didAnswer":true,"imgDirection":"left","reactionTime":1109,"correctAnswer":false},{"block":10,"image":"d7ori_17_left_9.0_jit11_0.9.jpg","trial":132,"didAnswer":true,"imgDirection":"left","reactionTime":1094,"correctAnswer":false},{"block":10,"image":"d7ori_21_left_9.0_jit11_0.9.jpg","trial":133,"didAnswer":true,"imgDirection":"left","reactionTime":986,"correctAnswer":true},{"block":10,"image":"d7ori_4_right_9.0_jit11_0.9.jpg","trial":134,"didAnswer":true,"imgDirection":"right","reactionTime":736,"correctAnswer":true},{"block":10,"image":"lf7Left7_low.jpg","trial":135,"didAnswer":true,"imgDirection":"left","reactionTime":675,"correctAnswer":true},{"block":10,"image":"d7ori_5_left_9.0_jit11_0.9.jpg","trial":136,"didAnswer":true,"imgDirection":"left","reactionTime":745,"correctAnswer":false},{"block":10,"image":"d7ori_20_right_9.0_jit11_0.9.jpg","trial":137,"didAnswer":true,"imgDirection":"right","reactionTime":718,"correctAnswer":false},{"block":10,"image":"d7ori_1_left_9.0_jit11_0.9.jpg","trial":138,"didAnswer":true,"imgDirection":"left","reactionTime":736,"correctAnswer":true},{"block":10,"image":"d7ori_12_right_9.0_jit11_0.9.jpg","trial":139,"didAnswer":true,"imgDirection":"right","reactionTime":598,"correctAnswer":true},{"block":10,"image":"d7ori_16_right_9.0_jit11_0.9.jpg","trial":140,"didAnswer":true,"imgDirection":"right","reactionTime":813,"correctAnswer":false},{"block":11,"image":"d7ori_22_left_9.0_jit13_0.9.jpg","trial":141,"didAnswer":true,"imgDirection":"left","reactionTime":1234,"correctAnswer":false},{"block":11,"image":"d7ori_19_right_9.0_jit13_0.9.jpg","trial":142,"didAnswer":true,"imgDirection":"right","reactionTime":938,"correctAnswer":true},{"block":11,"image":"d7ori_7_right_9.0_jit13_0.9.jpg","trial":143,"didAnswer":false,"imgDirection":"right","reactionTime":2014,"correctAnswer":null},{"block":11,"image":"d7ori_10_left_9.0_jit13_0.9.jpg","trial":144,"didAnswer":true,"imgDirection":"left","reactionTime":1744,"correctAnswer":true},{"block":11,"image":"d7ori_18_left_9.0_jit13_0.9.jpg","trial":145,"didAnswer":false,"imgDirection":"left","reactionTime":2000,"correctAnswer":null},{"block":11,"image":"d3Right3_low.jpg","trial":146,"didAnswer":true,"imgDirection":"right","reactionTime":721,"correctAnswer":true},{"block":11,"image":"lf15Left3NoB_low.jpg","trial":147,"didAnswer":true,"imgDirection":"left","reactionTime":577,"correctAnswer":true},{"block":11,"image":"d7ori_15_right_9.0_jit13_0.9.jpg","trial":148,"didAnswer":false,"imgDirection":"right","reactionTime":2000,"correctAnswer":null},{"block":11,"image":"d7ori_3_right_9.0_jit13_0.9.jpg","trial":149,"didAnswer":true,"imgDirection":"right","reactionTime":1754,"correctAnswer":false},{"block":11,"image":"d7ori_11_right_9.0_jit13_0.9.jpg","trial":150,"didAnswer":true,"imgDirection":"right","reactionTime":1937,"correctAnswer":true},{"block":11,"image":"d7ori_14_left_9.0_jit13_0.9.jpg","trial":151,"didAnswer":false,"imgDirection":"left","reactionTime":2010,"correctAnswer":null},{"block":11,"image":"d7ori_6_left_9.0_jit13_0.9.jpg","trial":152,"didAnswer":false,"imgDirection":"left","reactionTime":2000,"correctAnswer":null},{"block":11,"image":"d7ori_2_left_9.0_jit13_0.9.jpg","trial":153,"didAnswer":false,"imgDirection":"left","reactionTime":2000,"correctAnswer":null},{"block":11,"image":"d7ori_23_right_9.0_jit13_0.9.jpg","trial":154,"didAnswer":false,"imgDirection":"right","reactionTime":2008,"correctAnswer":null},{"block":12,"image":"d7ori_15_right_9.0_jit15_0.9.jpg","trial":155,"didAnswer":true,"imgDirection":"right","reactionTime":1254,"correctAnswer":true},{"block":12,"image":"d7ori_2_left_9.0_jit15_0.9.jpg","trial":156,"didAnswer":true,"imgDirection":"left","reactionTime":948,"correctAnswer":false},{"block":12,"image":"d7ori_10_left_9.0_jit15_0.9.jpg","trial":157,"didAnswer":true,"imgDirection":"left","reactionTime":705,"correctAnswer":false},{"block":12,"image":"lf4Left4_low.jpg","trial":158,"didAnswer":true,"imgDirection":"left","reactionTime":549,"correctAnswer":true},{"block":12,"image":"d7ori_19_right_9.0_jit15_0.9.jpg","trial":159,"didAnswer":true,"imgDirection":"right","reactionTime":1047,"correctAnswer":true},{"block":12,"image":"d7ori_3_right_9.0_jit15_0.9.jpg","trial":160,"didAnswer":false,"imgDirection":"right","reactionTime":2007,"correctAnswer":null},{"block":12,"image":"d7ori_18_left_9.0_jit15_0.9.jpg","trial":161,"didAnswer":true,"imgDirection":"left","reactionTime":1441,"correctAnswer":false},{"block":12,"image":"d7ori_6_left_9.0_jit15_0.9.jpg","trial":162,"didAnswer":true,"imgDirection":"left","reactionTime":952,"correctAnswer":true},{"block":12,"image":"d7ori_7_right_9.0_jit15_0.9.jpg","trial":163,"didAnswer":true,"imgDirection":"right","reactionTime":1158,"correctAnswer":true},{"block":12,"image":"d7ori_14_left_9.0_jit15_0.9.jpg","trial":164,"didAnswer":false,"imgDirection":"left","reactionTime":2006,"correctAnswer":null},{"block":12,"image":"d7ori_11_right_9.0_jit15_0.9.jpg","trial":165,"didAnswer":false,"imgDirection":"right","reactionTime":2015,"correctAnswer":null},{"block":12,"image":"d7ori_23_right_9.0_jit15_0.9.jpg","trial":166,"didAnswer":true,"imgDirection":"right","reactionTime":903,"correctAnswer":true},{"block":12,"image":"d7ori_22_left_9.0_jit15_0.9.jpg","trial":167,"didAnswer":true,"imgDirection":"left","reactionTime":1753,"correctAnswer":true},{"block":12,"image":"lf21Left9NoB_low.jpg","trial":168,"didAnswer":true,"imgDirection":"left","reactionTime":659,"correctAnswer":true},{"block":13,"image":"d0ori_left_9.0_0.9_17.jpg","trial":169,"didAnswer":true,"imgDirection":"left","reactionTime":766,"correctAnswer":true},{"block":13,"image":"d0ori_left_9.0_0.9_15.jpg","trial":170,"didAnswer":true,"imgDirection":"left","reactionTime":870,"correctAnswer":true},{"block":13,"image":"d0ori_left_9.0_0.9_16.jpg","trial":171,"didAnswer":true,"imgDirection":"left","reactionTime":735,"correctAnswer":true},{"block":13,"image":"d0ori_left_9.0_0.9_13.jpg","trial":172,"didAnswer":true,"imgDirection":"left","reactionTime":814,"correctAnswer":true},{"block":13,"image":"d0ori_right_9.0_0.9_12.jpg","trial":173,"didAnswer":true,"imgDirection":"right","reactionTime":800,"correctAnswer":true},{"block":13,"image":"d0ori_right_9.0_0.9_17.jpg","trial":174,"didAnswer":true,"imgDirection":"right","reactionTime":799,"correctAnswer":true},{"block":13,"image":"d0ori_left_9.0_0.9_14.jpg","trial":175,"didAnswer":true,"imgDirection":"left","reactionTime":797,"correctAnswer":true},{"block":13,"image":"d0ori_right_9.0_0.9_16.jpg","trial":176,"didAnswer":true,"imgDirection":"right","reactionTime":564,"correctAnswer":true},{"block":13,"image":"d17Right7NoB_low.jpg","trial":177,"didAnswer":true,"imgDirection":"right","reactionTime":589,"correctAnswer":true},{"block":13,"image":"d0ori_right_9.0_0.9_14.jpg","trial":178,"didAnswer":true,"imgDirection":"right","reactionTime":612,"correctAnswer":true},{"block":13,"image":"d0Right0_low.jpg","trial":179,"didAnswer":true,"imgDirection":"right","reactionTime":527,"correctAnswer":true},{"block":13,"image":"d0ori_right_9.0_0.9_15.jpg","trial":180,"didAnswer":true,"imgDirection":"right","reactionTime":625,"correctAnswer":true},{"block":13,"image":"d0ori_left_9.0_0.9_12.jpg","trial":181,"didAnswer":true,"imgDirection":"left","reactionTime":670,"correctAnswer":true},{"block":13,"image":"d0ori_right_9.0_0.9_13.jpg","trial":182,"didAnswer":true,"imgDirection":"right","reactionTime":568,"correctAnswer":true},{"block":14,"image":"d10Right10_low.jpg","trial":183,"didAnswer":true,"imgDirection":"right","reactionTime":565,"correctAnswer":true},{"block":14,"image":"d7ori_3_left_9.0_jit7_0.9.jpg","trial":184,"didAnswer":true,"imgDirection":"left","reactionTime":643,"correctAnswer":true},{"block":14,"image":"d7ori_7_left_9.0_jit7_0.9.jpg","trial":185,"didAnswer":true,"imgDirection":"left","reactionTime":813,"correctAnswer":false},{"block":14,"image":"d7ori_6_right_9.0_jit7_0.9.jpg","trial":186,"didAnswer":true,"imgDirection":"right","reactionTime":549,"correctAnswer":false},{"block":14,"image":"d7ori_2_right_9.0_jit7_0.9.jpg","trial":187,"didAnswer":true,"imgDirection":"right","reactionTime":573,"correctAnswer":true},{"block":14,"image":"d7ori_18_right_9.0_jit7_0.9.jpg","trial":188,"didAnswer":true,"imgDirection":"right","reactionTime":834,"correctAnswer":false},{"block":14,"image":"d7ori_11_left_9.0_jit7_0.9.jpg","trial":189,"didAnswer":true,"imgDirection":"left","reactionTime":1037,"correctAnswer":true},{"block":14,"image":"d7ori_19_left_9.0_jit7_0.9.jpg","trial":190,"didAnswer":true,"imgDirection":"left","reactionTime":799,"correctAnswer":true},{"block":14,"image":"d7ori_14_right_9.0_jit7_0.9.jpg","trial":191,"didAnswer":true,"imgDirection":"right","reactionTime":680,"correctAnswer":false},{"block":14,"image":"d7ori_23_left_9.0_jit7_0.9.jpg","trial":192,"didAnswer":true,"imgDirection":"left","reactionTime":723,"correctAnswer":true},{"block":14,"image":"d7ori_22_right_9.0_jit7_0.9.jpg","trial":193,"didAnswer":true,"imgDirection":"right","reactionTime":936,"correctAnswer":true},{"block":14,"image":"d7ori_15_left_9.0_jit7_0.9.jpg","trial":194,"didAnswer":false,"imgDirection":"left","reactionTime":2004,"correctAnswer":null},{"block":14,"image":"d23Right11NoB_low.jpg","trial":195,"didAnswer":true,"imgDirection":"right","reactionTime":676,"correctAnswer":true},{"block":14,"image":"d7ori_10_right_9.0_jit7_0.9.jpg","trial":196,"didAnswer":true,"imgDirection":"right","reactionTime":1034,"correctAnswer":true},{"block":15,"image":"right-d7ori_18_right_9.0_jit9_0.9.jpg","trial":197,"didAnswer":true,"imgDirection":"right","reactionTime":902,"correctAnswer":true},{"block":15,"image":"lf11Left11_low.jpg","trial":198,"didAnswer":true,"imgDirection":"left","reactionTime":594,"correctAnswer":true},{"block":15,"image":"left-d7ori_7_left_9.0_jit9_0.9.jpg","trial":199,"didAnswer":true,"imgDirection":"left","reactionTime":956,"correctAnswer":true},{"block":15,"image":"right-d7ori_22_right_9.0_jit9_0.9.jpg","trial":200,"didAnswer":true,"imgDirection":"right","reactionTime":706,"correctAnswer":true},{"block":15,"image":"right-d7ori_14_right_9.0_jit9_0.9.jpg","trial":201,"didAnswer":true,"imgDirection":"right","reactionTime":944,"correctAnswer":true},{"block":15,"image":"left-d7ori_23_left_9.0_jit9_0.9.jpg","trial":202,"didAnswer":true,"imgDirection":"left","reactionTime":991,"correctAnswer":false},{"block":15,"image":"right-d7ori_10_right_9.0_jit9_0.9.jpg","trial":203,"didAnswer":true,"imgDirection":"right","reactionTime":769,"correctAnswer":true},{"block":15,"image":"lf22Left10NoB_low.jpg","trial":204,"didAnswer":true,"imgDirection":"left","reactionTime":703,"correctAnswer":true},{"block":15,"image":"right-d7ori_6_right_9.0_jit9_0.9.jpg","trial":205,"didAnswer":true,"imgDirection":"right","reactionTime":925,"correctAnswer":true},{"block":15,"image":"left-d7ori_15_left_9.0_jit9_0.9.jpg","trial":206,"didAnswer":true,"imgDirection":"left","reactionTime":597,"correctAnswer":true},{"block":15,"image":"left-d7ori_3_left_9.0_jit9_0.9.jpg","trial":207,"didAnswer":true,"imgDirection":"left","reactionTime":1438,"correctAnswer":true},{"block":15,"image":"left-d7ori_11_left_9.0_jit9_0.9.jpg","trial":208,"didAnswer":true,"imgDirection":"left","reactionTime":971,"correctAnswer":false},{"block":15,"image":"left-d7ori_19_left_9.0_jit9_0.9.jpg","trial":209,"didAnswer":true,"imgDirection":"left","reactionTime":861,"correctAnswer":true},{"block":15,"image":"right-d7ori_2_right_9.0_jit9_0.9.jpg","trial":210,"didAnswer":true,"imgDirection":"right","reactionTime":698,"correctAnswer":true},{"block":16,"image":"d7ori_5_right_9.0_jit11_0.9.jpg","trial":211,"didAnswer":true,"imgDirection":"right","reactionTime":1266,"correctAnswer":true},{"block":16,"image":"d7ori_12_left_9.0_jit11_0.9.jpg","trial":212,"didAnswer":true,"imgDirection":"left","reactionTime":1003,"correctAnswer":true},{"block":16,"image":"d7ori_24_left_9.0_jit11_0.9.jpg","trial":213,"didAnswer":true,"imgDirection":"left","reactionTime":1472,"correctAnswer":false},{"block":16,"image":"d7ori_13_right_9.0_jit11_0.9.jpg","trial":214,"didAnswer":true,"imgDirection":"right","reactionTime":1158,"correctAnswer":true},{"block":16,"image":"lf3Left3_low.jpg","trial":215,"didAnswer":true,"imgDirection":"left","reactionTime":725,"correctAnswer":true},{"block":16,"image":"lf12Left0NoB_low.jpg","trial":216,"didAnswer":true,"imgDirection":"left","reactionTime":809,"correctAnswer":true},{"block":16,"image":"d7ori_9_right_9.0_jit11_0.9.jpg","trial":217,"didAnswer":false,"imgDirection":"right","reactionTime":2015,"correctAnswer":null},{"block":16,"image":"d7ori_8_left_9.0_jit11_0.9.jpg","trial":218,"didAnswer":true,"imgDirection":"left","reactionTime":1283,"correctAnswer":false},{"block":16,"image":"d7ori_20_left_9.0_jit11_0.9.jpg","trial":219,"didAnswer":false,"imgDirection":"left","reactionTime":2001,"correctAnswer":null},{"block":16,"image":"d7ori_21_right_9.0_jit11_0.9.jpg","trial":220,"didAnswer":true,"imgDirection":"right","reactionTime":1285,"correctAnswer":true},{"block":16,"image":"d7ori_4_left_9.0_jit11_0.9.jpg","trial":221,"didAnswer":true,"imgDirection":"left","reactionTime":1298,"correctAnswer":false},{"block":16,"image":"d7ori_1_right_9.0_jit11_0.9.jpg","trial":222,"didAnswer":false,"imgDirection":"right","reactionTime":2015,"correctAnswer":null},{"block":16,"image":"d7ori_17_right_9.0_jit11_0.9.jpg","trial":223,"didAnswer":false,"imgDirection":"right","reactionTime":2003,"correctAnswer":null},{"block":16,"image":"d7ori_16_left_9.0_jit11_0.9.jpg","trial":224,"didAnswer":true,"imgDirection":"left","reactionTime":1285,"correctAnswer":false},{"block":17,"image":"d7ori_6_right_9.0_jit13_0.9.jpg","trial":225,"didAnswer":true,"imgDirection":"right","reactionTime":825,"correctAnswer":true},{"block":17,"image":"d16Right6NoB_low.jpg","trial":226,"didAnswer":true,"imgDirection":"right","reactionTime":1468,"correctAnswer":true},{"block":17,"image":"d7ori_11_left_9.0_jit13_0.9.jpg","trial":227,"didAnswer":true,"imgDirection":"left","reactionTime":1199,"correctAnswer":false},{"block":17,"image":"d7ori_23_left_9.0_jit13_0.9.jpg","trial":228,"didAnswer":true,"imgDirection":"left","reactionTime":1282,"correctAnswer":false},{"block":17,"image":"d7ori_14_right_9.0_jit13_0.9.jpg","trial":229,"didAnswer":true,"imgDirection":"right","reactionTime":762,"correctAnswer":true},{"block":17,"image":"d5Right5_low.jpg","trial":230,"didAnswer":true,"imgDirection":"right","reactionTime":487,"correctAnswer":true},{"block":17,"image":"d7ori_15_left_9.0_jit13_0.9.jpg","trial":231,"didAnswer":true,"imgDirection":"left","reactionTime":741,"correctAnswer":false},{"block":17,"image":"d7ori_19_left_9.0_jit13_0.9.jpg","trial":232,"didAnswer":true,"imgDirection":"left","reactionTime":1500,"correctAnswer":false},{"block":17,"image":"d7ori_3_left_9.0_jit13_0.9.jpg","trial":233,"didAnswer":true,"imgDirection":"left","reactionTime":543,"correctAnswer":false},{"block":17,"image":"d7ori_2_right_9.0_jit13_0.9.jpg","trial":234,"didAnswer":true,"imgDirection":"right","reactionTime":407,"correctAnswer":true},{"block":17,"image":"d7ori_22_right_9.0_jit13_0.9.jpg","trial":235,"didAnswer":true,"imgDirection":"right","reactionTime":1328,"correctAnswer":true},{"block":17,"image":"d7ori_7_left_9.0_jit13_0.9.jpg","trial":236,"didAnswer":true,"imgDirection":"left","reactionTime":1172,"correctAnswer":false},{"block":17,"image":"d7ori_18_right_9.0_jit13_0.9.jpg","trial":237,"didAnswer":false,"imgDirection":"right","reactionTime":2015,"correctAnswer":null},{"block":17,"image":"d7ori_10_right_9.0_jit13_0.9.jpg","trial":238,"didAnswer":true,"imgDirection":"right","reactionTime":1017,"correctAnswer":true},{"block":18,"image":"d7ori_14_right_9.0_jit15_0.9.jpg","trial":239,"didAnswer":true,"imgDirection":"right","reactionTime":871,"correctAnswer":true},{"block":18,"image":"d7ori_7_left_9.0_jit15_0.9.jpg","trial":240,"didAnswer":true,"imgDirection":"left","reactionTime":1688,"correctAnswer":false},{"block":18,"image":"d7ori_15_left_9.0_jit15_0.9.jpg","trial":241,"didAnswer":true,"imgDirection":"left","reactionTime":1392,"correctAnswer":false},{"block":18,"image":"lf17Left5NoB_low.jpg","trial":242,"didAnswer":true,"imgDirection":"left","reactionTime":1094,"correctAnswer":true},{"block":18,"image":"d7ori_19_left_9.0_jit15_0.9.jpg","trial":243,"didAnswer":true,"imgDirection":"left","reactionTime":1278,"correctAnswer":true},{"block":18,"image":"d7ori_18_right_9.0_jit15_0.9.jpg","trial":244,"didAnswer":true,"imgDirection":"right","reactionTime":1861,"correctAnswer":false},{"block":18,"image":"d7ori_22_right_9.0_jit15_0.9.jpg","trial":245,"didAnswer":false,"imgDirection":"right","reactionTime":2011,"correctAnswer":null},{"block":18,"image":"d7ori_2_right_9.0_jit15_0.9.jpg","trial":246,"didAnswer":true,"imgDirection":"right","reactionTime":1684,"correctAnswer":true},{"block":18,"image":"d7ori_23_left_9.0_jit15_0.9.jpg","trial":247,"didAnswer":true,"imgDirection":"left","reactionTime":1161,"correctAnswer":false},{"block":18,"image":"d7ori_3_left_9.0_jit15_0.9.jpg","trial":248,"didAnswer":true,"imgDirection":"left","reactionTime":1422,"correctAnswer":true},{"block":18,"image":"d7ori_10_right_9.0_jit15_0.9.jpg","trial":249,"didAnswer":true,"imgDirection":"right","reactionTime":934,"correctAnswer":true},{"block":18,"image":"d7ori_11_left_9.0_jit15_0.9.jpg","trial":250,"didAnswer":true,"imgDirection":"left","reactionTime":1567,"correctAnswer":true},{"block":18,"image":"d7ori_6_right_9.0_jit15_0.9.jpg","trial":251,"didAnswer":false,"imgDirection":"right","reactionTime":2015,"correctAnswer":null},{"block":18,"image":"d8Right8_low.jpg","trial":252,"didAnswer":true,"imgDirection":"right","reactionTime":643,"correctAnswer":true},{"block":19,"image":"d13Right3NoB_low.jpg","trial":253,"didAnswer":true,"imgDirection":"right","reactionTime":580,"correctAnswer":true},{"block":19,"image":"d0ori_right_9.0_0.9_18.jpg","trial":254,"didAnswer":true,"imgDirection":"right","reactionTime":841,"correctAnswer":true},{"block":19,"image":"lf0Left0_low.jpg","trial":255,"didAnswer":true,"imgDirection":"left","reactionTime":581,"correctAnswer":true},{"block":19,"image":"d0ori_right_9.0_0.9_19.jpg","trial":256,"didAnswer":true,"imgDirection":"right","reactionTime":709,"correctAnswer":true},{"block":19,"image":"d0ori_left_9.0_0.9_21.jpg","trial":257,"didAnswer":true,"imgDirection":"left","reactionTime":699,"correctAnswer":true},{"block":19,"image":"d0ori_left_9.0_0.9_22.jpg","trial":258,"didAnswer":true,"imgDirection":"left","reactionTime":801,"correctAnswer":true},{"block":19,"image":"d0ori_right_9.0_0.9_22.jpg","trial":259,"didAnswer":true,"imgDirection":"right","reactionTime":768,"correctAnswer":true},{"block":19,"image":"d0ori_left_9.0_0.9_23.jpg","trial":260,"didAnswer":true,"imgDirection":"left","reactionTime":656,"correctAnswer":true},{"block":19,"image":"d0ori_right_9.0_0.9_23.jpg","trial":261,"didAnswer":true,"imgDirection":"right","reactionTime":406,"correctAnswer":true},{"block":19,"image":"d0ori_right_9.0_0.9_20.jpg","trial":262,"didAnswer":true,"imgDirection":"right","reactionTime":1781,"correctAnswer":true},{"block":19,"image":"d0ori_right_9.0_0.9_21.jpg","trial":263,"didAnswer":true,"imgDirection":"right","reactionTime":611,"correctAnswer":true},{"block":19,"image":"d0ori_left_9.0_0.9_19.jpg","trial":264,"didAnswer":true,"imgDirection":"left","reactionTime":597,"correctAnswer":true},{"block":19,"image":"d0ori_left_9.0_0.9_20.jpg","trial":265,"didAnswer":true,"imgDirection":"left","reactionTime":515,"correctAnswer":false},{"block":19,"image":"d0ori_left_9.0_0.9_18.jpg","trial":266,"didAnswer":true,"imgDirection":"left","reactionTime":685,"correctAnswer":true},{"block":20,"image":"d7ori_16_left_9.0_jit7_0.9.jpg","trial":267,"didAnswer":true,"imgDirection":"left","reactionTime":1018,"correctAnswer":true},{"block":20,"image":"d7ori_20_left_9.0_jit7_0.9.jpg","trial":268,"didAnswer":true,"imgDirection":"left","reactionTime":988,"correctAnswer":true},{"block":20,"image":"d7ori_5_right_9.0_jit7_0.9.jpg","trial":269,"didAnswer":true,"imgDirection":"right","reactionTime":1050,"correctAnswer":false},{"block":20,"image":"d7ori_12_left_9.0_jit7_0.9.jpg","trial":270,"didAnswer":true,"imgDirection":"left","reactionTime":642,"correctAnswer":true},{"block":20,"image":"d22Right10NoB_low.jpg","trial":271,"didAnswer":true,"imgDirection":"right","reactionTime":516,"correctAnswer":false},{"block":20,"image":"lf1Left1_low.jpg","trial":272,"didAnswer":true,"imgDirection":"left","reactionTime":549,"correctAnswer":true},{"block":20,"image":"d7ori_4_left_9.0_jit7_0.9.jpg","trial":273,"didAnswer":true,"imgDirection":"left","reactionTime":986,"correctAnswer":false},{"block":20,"image":"d7ori_24_left_9.0_jit7_0.9.jpg","trial":274,"didAnswer":true,"imgDirection":"left","reactionTime":643,"correctAnswer":true},{"block":20,"image":"d7ori_17_right_9.0_jit7_0.9.jpg","trial":275,"didAnswer":true,"imgDirection":"right","reactionTime":718,"correctAnswer":true},{"block":20,"image":"d7ori_13_right_9.0_jit7_0.9.jpg","trial":276,"didAnswer":true,"imgDirection":"right","reactionTime":731,"correctAnswer":false},{"block":20,"image":"d7ori_21_right_9.0_jit7_0.9.jpg","trial":277,"didAnswer":true,"imgDirection":"right","reactionTime":440,"correctAnswer":true},{"block":20,"image":"d7ori_8_left_9.0_jit7_0.9.jpg","trial":278,"didAnswer":true,"imgDirection":"left","reactionTime":390,"correctAnswer":true},{"block":20,"image":"d7ori_9_right_9.0_jit7_0.9.jpg","trial":279,"didAnswer":true,"imgDirection":"right","reactionTime":317,"correctAnswer":true},{"block":20,"image":"d7ori_1_right_9.0_jit7_0.9.jpg","trial":280,"didAnswer":true,"imgDirection":"right","reactionTime":391,"correctAnswer":false},{"block":21,"image":"left-d7ori_24_left_9.0_jit9_0.9.jpg","trial":281,"didAnswer":true,"imgDirection":"left","reactionTime":1251,"correctAnswer":false},{"block":21,"image":"left-d7ori_20_left_9.0_jit9_0.9.jpg","trial":282,"didAnswer":true,"imgDirection":"left","reactionTime":810,"correctAnswer":true},{"block":21,"image":"right-d7ori_1_right_9.0_jit9_0.9.jpg","trial":283,"didAnswer":true,"imgDirection":"right","reactionTime":845,"correctAnswer":true},{"block":21,"image":"right-d7ori_9_right_9.0_jit9_0.9.jpg","trial":284,"didAnswer":true,"imgDirection":"right","reactionTime":1043,"correctAnswer":true},{"block":21,"image":"left-d7ori_12_left_9.0_jit9_0.9.jpg","trial":285,"didAnswer":true,"imgDirection":"left","reactionTime":744,"correctAnswer":true},{"block":21,"image":"d9Right9_low.jpg","trial":286,"didAnswer":true,"imgDirection":"right","reactionTime":674,"correctAnswer":true},{"block":21,"image":"left-d7ori_8_left_9.0_jit9_0.9.jpg","trial":287,"didAnswer":true,"imgDirection":"left","reactionTime":626,"correctAnswer":true},{"block":21,"image":"right-d7ori_5_right_9.0_jit9_0.9.jpg","trial":288,"didAnswer":true,"imgDirection":"right","reactionTime":656,"correctAnswer":true},{"block":21,"image":"right-d7ori_21_right_9.0_jit9_0.9.jpg","trial":289,"didAnswer":true,"imgDirection":"right","reactionTime":958,"correctAnswer":true},{"block":21,"image":"lf14Left2NoB_low.jpg","trial":290,"didAnswer":true,"imgDirection":"left","reactionTime":501,"correctAnswer":true},{"block":21,"image":"left-d7ori_16_left_9.0_jit9_0.9.jpg","trial":291,"didAnswer":true,"imgDirection":"left","reactionTime":573,"correctAnswer":false},{"block":21,"image":"right-d7ori_17_right_9.0_jit9_0.9.jpg","trial":292,"didAnswer":true,"imgDirection":"right","reactionTime":653,"correctAnswer":false},{"block":21,"image":"left-d7ori_4_left_9.0_jit9_0.9.jpg","trial":293,"didAnswer":true,"imgDirection":"left","reactionTime":659,"correctAnswer":true},{"block":21,"image":"right-d7ori_13_right_9.0_jit9_0.9.jpg","trial":294,"didAnswer":true,"imgDirection":"right","reactionTime":907,"correctAnswer":true},{"block":22,"image":"d7ori_15_left_9.0_jit11_0.9.jpg","trial":295,"didAnswer":true,"imgDirection":"left","reactionTime":1021,"correctAnswer":false},{"block":22,"image":"d7ori_19_left_9.0_jit11_0.9.jpg","trial":296,"didAnswer":true,"imgDirection":"left","reactionTime":967,"correctAnswer":false},{"block":22,"image":"d7ori_6_right_9.0_jit11_0.9.jpg","trial":297,"didAnswer":true,"imgDirection":"right","reactionTime":1042,"correctAnswer":false},{"block":22,"image":"d7ori_10_right_9.0_jit11_0.9.jpg","trial":298,"didAnswer":true,"imgDirection":"right","reactionTime":1070,"correctAnswer":true},{"block":22,"image":"d7ori_23_left_9.0_jit11_0.9.jpg","trial":299,"didAnswer":true,"imgDirection":"left","reactionTime":659,"correctAnswer":true},{"block":22,"image":"lf19Left7NoB_low.jpg","trial":300,"didAnswer":true,"imgDirection":"left","reactionTime":641,"correctAnswer":true},{"block":22,"image":"d7ori_22_right_9.0_jit11_0.9.jpg","trial":301,"didAnswer":true,"imgDirection":"right","reactionTime":1177,"correctAnswer":true},{"block":22,"image":"d7ori_18_right_9.0_jit11_0.9.jpg","trial":302,"didAnswer":true,"imgDirection":"right","reactionTime":531,"correctAnswer":false},{"block":22,"image":"d7ori_7_left_9.0_jit11_0.9.jpg","trial":303,"didAnswer":true,"imgDirection":"left","reactionTime":644,"correctAnswer":true},{"block":22,"image":"d7ori_3_left_9.0_jit11_0.9.jpg","trial":304,"didAnswer":true,"imgDirection":"left","reactionTime":596,"correctAnswer":false},{"block":22,"image":"d7ori_14_right_9.0_jit11_0.9.jpg","trial":305,"didAnswer":true,"imgDirection":"right","reactionTime":1082,"correctAnswer":true},{"block":22,"image":"d7ori_2_right_9.0_jit11_0.9.jpg","trial":306,"didAnswer":true,"imgDirection":"right","reactionTime":914,"correctAnswer":false},{"block":22,"image":"lf8Left8_low.jpg","trial":307,"didAnswer":true,"imgDirection":"left","reactionTime":687,"correctAnswer":true},{"block":22,"image":"d7ori_11_left_9.0_jit11_0.9.jpg","trial":308,"didAnswer":true,"imgDirection":"left","reactionTime":1039,"correctAnswer":true},{"block":23,"image":"d7ori_16_left_9.0_jit13_0.9.jpg","trial":309,"didAnswer":true,"imgDirection":"left","reactionTime":1397,"correctAnswer":true},{"block":23,"image":"d7ori_5_right_9.0_jit13_0.9.jpg","trial":310,"didAnswer":true,"imgDirection":"right","reactionTime":1092,"correctAnswer":false},{"block":23,"image":"d7ori_1_right_9.0_jit13_0.9.jpg","trial":311,"didAnswer":true,"imgDirection":"right","reactionTime":764,"correctAnswer":true},{"block":23,"image":"d7ori_17_right_9.0_jit13_0.9.jpg","trial":312,"didAnswer":true,"imgDirection":"right","reactionTime":870,"correctAnswer":false},{"block":23,"image":"d18Right8NoB_low.jpg","trial":313,"didAnswer":true,"imgDirection":"right","reactionTime":580,"correctAnswer":true},{"block":23,"image":"d7ori_21_right_9.0_jit13_0.9.jpg","trial":314,"didAnswer":true,"imgDirection":"right","reactionTime":811,"correctAnswer":true},{"block":23,"image":"d7ori_4_left_9.0_jit13_0.9.jpg","trial":315,"didAnswer":true,"imgDirection":"left","reactionTime":676,"correctAnswer":false},{"block":23,"image":"d7ori_8_left_9.0_jit13_0.9.jpg","trial":316,"didAnswer":true,"imgDirection":"left","reactionTime":830,"correctAnswer":false},{"block":23,"image":"d7ori_12_left_9.0_jit13_0.9.jpg","trial":317,"didAnswer":true,"imgDirection":"left","reactionTime":468,"correctAnswer":false},{"block":23,"image":"d7Right7_low.jpg","trial":318,"didAnswer":true,"imgDirection":"right","reactionTime":531,"correctAnswer":true},{"block":23,"image":"d7ori_13_right_9.0_jit13_0.9.jpg","trial":319,"didAnswer":true,"imgDirection":"right","reactionTime":735,"correctAnswer":true},{"block":23,"image":"d7ori_9_right_9.0_jit13_0.9.jpg","trial":320,"didAnswer":true,"imgDirection":"right","reactionTime":1141,"correctAnswer":false},{"block":23,"image":"d7ori_24_left_9.0_jit13_0.9.jpg","trial":321,"didAnswer":true,"imgDirection":"left","reactionTime":601,"correctAnswer":false},{"block":23,"image":"d7ori_20_left_9.0_jit13_0.9.jpg","trial":322,"didAnswer":false,"imgDirection":"left","reactionTime":2015,"correctAnswer":null},{"block":24,"image":"d7ori_4_left_9.0_jit15_0.9.jpg","trial":323,"didAnswer":false,"imgDirection":"left","reactionTime":2006,"correctAnswer":null},{"block":24,"image":"d1Right1_low.jpg","trial":324,"didAnswer":true,"imgDirection":"right","reactionTime":705,"correctAnswer":true},{"block":24,"image":"d7ori_13_right_9.0_jit15_0.9.jpg","trial":325,"didAnswer":false,"imgDirection":"right","reactionTime":2002,"correctAnswer":null},{"block":24,"image":"d7ori_21_right_9.0_jit15_0.9.jpg","trial":326,"didAnswer":true,"imgDirection":"right","reactionTime":1283,"correctAnswer":true},{"block":24,"image":"d7ori_1_right_9.0_jit15_0.9.jpg","trial":327,"didAnswer":true,"imgDirection":"right","reactionTime":687,"correctAnswer":true},{"block":24,"image":"d7ori_9_right_9.0_jit15_0.9.jpg","trial":328,"didAnswer":true,"imgDirection":"right","reactionTime":828,"correctAnswer":true},{"block":24,"image":"d7ori_8_left_9.0_jit15_0.9.jpg","trial":329,"didAnswer":true,"imgDirection":"left","reactionTime":627,"correctAnswer":false},{"block":24,"image":"lf20Left8NoB_low.jpg","trial":330,"didAnswer":true,"imgDirection":"left","reactionTime":615,"correctAnswer":true},{"block":24,"image":"d7ori_5_right_9.0_jit15_0.9.jpg","trial":331,"didAnswer":true,"imgDirection":"right","reactionTime":842,"correctAnswer":true},{"block":24,"image":"d7ori_20_left_9.0_jit15_0.9.jpg","trial":332,"didAnswer":true,"imgDirection":"left","reactionTime":406,"correctAnswer":true},{"block":24,"image":"d7ori_17_right_9.0_jit15_0.9.jpg","trial":333,"didAnswer":true,"imgDirection":"right","reactionTime":374,"correctAnswer":true},{"block":24,"image":"d7ori_24_left_9.0_jit15_0.9.jpg","trial":334,"didAnswer":true,"imgDirection":"left","reactionTime":416,"correctAnswer":true},{"block":24,"image":"d7ori_16_left_9.0_jit15_0.9.jpg","trial":335,"didAnswer":true,"imgDirection":"left","reactionTime":884,"correctAnswer":false},{"block":24,"image":"d7ori_12_left_9.0_jit15_0.9.jpg","trial":336,"didAnswer":true,"imgDirection":"left","reactionTime":1595,"correctAnswer":true}],"browserInfo":{"windowInfo":{"width":1280,"height":918},"navigatorInfo":{"onLine":true,"vendor":"Google Inc.","appName":"Netscape","plugins":{"0":{"0":{}},"1":{"0":{}},"2":{"0":{},"1":{}},"3":{"0":{}}},"product":"Gecko","storage":{},"language":"en-US","platform":"Win32","languages":["en-US","en"],"mimeTypes":{"0":{},"1":{},"2":{},"3":{},"4":{}},"userAgent":"Mozilla/5.0 (Windows NT 6.1; Win64; x64) AppleWebKit/537.36 (KHTML, like Gecko) Chrome/58.0.3029.110 Safari/537.36","vendorSub":"","appVersion":"5.0 (Windows NT 6.1; Win64; x64) AppleWebKit/537.36 (KHTML, like Gecko) Chrome/58.0.3029.110 Safari/537.36","doNotTrack":null,"productSub":"20030107","appCodeName":"Mozilla","credentials":{},"geolocation":{},"permissions":{},"mediaDevices":{},"presentation":{},"cookieEnabled":true,"serviceWorker":{},"maxTouchPoints":0,"hardwareConcurrency":2,"webkitTemporaryStorage":{},"webkitPersistentStorage":{}}}}