{"id":49,"finished":true,"user":"eduard","test":"Jovi4","started":"2017-05-19T08:38:26.427Z","ended":"2017-05-19T08:53:21.035Z","data":[{"block":1,"image":"d0ori_left_9.0_0.9_2.jpg","trial":1,"didAnswer":true,"imgDirection":"left","reactionTime":1232,"correctAnswer":true},{"block":1,"image":"d0ori_right_9.0_0.9_0.jpg","trial":2,"didAnswer":true,"imgDirection":"right","reactionTime":1367,"correctAnswer":true},{"block":1,"image":"d0ori_left_9.0_0.9_5.jpg","trial":3,"didAnswer":true,"imgDirection":"left","reactionTime":867,"correctAnswer":true},{"block":1,"image":"d0ori_right_9.0_0.9_1.jpg","trial":4,"didAnswer":true,"imgDirection":"right","reactionTime":1249,"correctAnswer":true},{"block":1,"image":"d0ori_right_9.0_0.9_2.jpg","trial":5,"didAnswer":true,"imgDirection":"right","reactionTime":766,"correctAnswer":true},{"block":1,"image":"d0ori_left_9.0_0.9_0.jpg","trial":6,"didAnswer":true,"imgDirection":"left","reactionTime":1033,"correctAnswer":true},{"block":1,"image":"d0ori_left_9.0_0.9_1.jpg","trial":7,"didAnswer":true,"imgDirection":"left","reactionTime":1384,"correctAnswer":true},{"block":1,"image":"d0ori_left_9.0_0.9_3.jpg","trial":8,"didAnswer":true,"imgDirection":"left","reactionTime":1234,"correctAnswer":true},{"block":1,"image":"d14Right4NoB_low.jpg","trial":9,"didAnswer":true,"imgDirection":"right","reactionTime":1167,"correctAnswer":true},{"block":1,"image":"d0ori_right_9.0_0.9_4.jpg","trial":10,"didAnswer":true,"imgDirection":"right","reactionTime":1283,"correctAnswer":true},{"block":1,"image":"d6Right6_low.jpg","trial":11,"didAnswer":true,"imgDirection":"right","reactionTime":1183,"correctAnswer":true},{"block":1,"image":"d0ori_right_9.0_0.9_5.jpg","trial":12,"didAnswer":true,"imgDirection":"right","reactionTime":966,"correctAnswer":true},{"block":1,"image":"d0ori_left_9.0_0.9_4.jpg","trial":13,"didAnswer":true,"imgDirection":"left","reactionTime":1117,"correctAnswer":true},{"block":1,"image":"d0ori_right_9.0_0.9_3.jpg","trial":14,"didAnswer":false,"imgDirection":"right","reactionTime":2000,"correctAnswer":null},{"block":2,"image":"d7ori_21_left_9.0_jit7_0.9.jpg","trial":15,"didAnswer":true,"imgDirection":"left","reactionTime":1250,"correctAnswer":true},{"block":2,"image":"d7ori_9_left_9.0_jit7_0.9.jpg","trial":16,"didAnswer":true,"imgDirection":"left","reactionTime":1448,"correctAnswer":true},{"block":2,"image":"lf18Left6NoB_low.jpg","trial":17,"didAnswer":true,"imgDirection":"left","reactionTime":649,"correctAnswer":true},{"block":2,"image":"d7ori_16_right_9.0_jit7_0.9.jpg","trial":18,"didAnswer":true,"imgDirection":"right","reactionTime":1183,"correctAnswer":true},{"block":2,"image":"d7ori_8_right_9.0_jit7_0.9.jpg","trial":19,"didAnswer":true,"imgDirection":"right","reactionTime":1484,"correctAnswer":true},{"block":2,"image":"d7ori_12_right_9.0_jit7_0.9.jpg","trial":20,"didAnswer":true,"imgDirection":"right","reactionTime":1767,"correctAnswer":true},{"block":2,"image":"d7ori_20_right_9.0_jit7_0.9.jpg","trial":21,"didAnswer":false,"imgDirection":"right","reactionTime":2000,"correctAnswer":null},{"block":2,"image":"d7ori_13_left_9.0_jit7_0.9.jpg","trial":22,"didAnswer":true,"imgDirection":"left","reactionTime":1050,"correctAnswer":true},{"block":2,"image":"d7ori_5_left_9.0_jit7_0.9.jpg","trial":23,"didAnswer":false,"imgDirection":"left","reactionTime":2016,"correctAnswer":null},{"block":2,"image":"d7ori_24_right_9.0_jit7_0.9.jpg","trial":24,"didAnswer":false,"imgDirection":"right","reactionTime":2016,"correctAnswer":null},{"block":2,"image":"d7ori_4_right_9.0_jit7_0.9.jpg","trial":25,"didAnswer":true,"imgDirection":"right","reactionTime":1100,"correctAnswer":true},{"block":2,"image":"d7ori_1_left_9.0_jit7_0.9.jpg","trial":26,"didAnswer":true,"imgDirection":"left","reactionTime":700,"correctAnswer":true},{"block":2,"image":"lf5Left5_low.jpg","trial":27,"didAnswer":true,"imgDirection":"left","reactionTime":733,"correctAnswer":true},{"block":2,"image":"d7ori_17_left_9.0_jit7_0.9.jpg","trial":28,"didAnswer":true,"imgDirection":"left","reactionTime":1418,"correctAnswer":true},{"block":3,"image":"right-d7ori_20_right_9.0_jit9_0.9.jpg","trial":29,"didAnswer":true,"imgDirection":"right","reactionTime":1283,"correctAnswer":true},{"block":3,"image":"lf23Left11NoB_low.jpg","trial":30,"didAnswer":true,"imgDirection":"left","reactionTime":567,"correctAnswer":true},{"block":3,"image":"lf2Left2_low.jpg","trial":31,"didAnswer":true,"imgDirection":"left","reactionTime":583,"correctAnswer":true},{"block":3,"image":"right-d7ori_16_right_9.0_jit9_0.9.jpg","trial":32,"didAnswer":true,"imgDirection":"right","reactionTime":1366,"correctAnswer":true},{"block":3,"image":"right-d7ori_24_right_9.0_jit9_0.9.jpg","trial":33,"didAnswer":true,"imgDirection":"right","reactionTime":1950,"correctAnswer":true},{"block":3,"image":"left-d7ori_5_left_9.0_jit9_0.9.jpg","trial":34,"didAnswer":true,"imgDirection":"left","reactionTime":1067,"correctAnswer":true},{"block":3,"image":"right-d7ori_12_right_9.0_jit9_0.9.jpg","trial":35,"didAnswer":true,"imgDirection":"right","reactionTime":1864,"correctAnswer":true},{"block":3,"image":"right-d7ori_8_right_9.0_jit9_0.9.jpg","trial":36,"didAnswer":false,"imgDirection":"right","reactionTime":2017,"correctAnswer":null},{"block":3,"image":"left-d7ori_21_left_9.0_jit9_0.9.jpg","trial":37,"didAnswer":true,"imgDirection":"left","reactionTime":1000,"correctAnswer":true},{"block":3,"image":"right-d7ori_4_right_9.0_jit9_0.9.jpg","trial":38,"didAnswer":true,"imgDirection":"right","reactionTime":1067,"correctAnswer":true},{"block":3,"image":"left-d7ori_13_left_9.0_jit9_0.9.jpg","trial":39,"didAnswer":false,"imgDirection":"left","reactionTime":2016,"correctAnswer":null},{"block":3,"image":"left-d7ori_1_left_9.0_jit9_0.9.jpg","trial":40,"didAnswer":false,"imgDirection":"left","reactionTime":2015,"correctAnswer":null},{"block":3,"image":"left-d7ori_9_left_9.0_jit9_0.9.jpg","trial":41,"didAnswer":true,"imgDirection":"left","reactionTime":1066,"correctAnswer":true},{"block":3,"image":"left-d7ori_17_left_9.0_jit9_0.9.jpg","trial":42,"didAnswer":true,"imgDirection":"left","reactionTime":1050,"correctAnswer":true},{"block":4,"image":"d7ori_10_left_9.0_jit11_0.9.jpg","trial":43,"didAnswer":false,"imgDirection":"left","reactionTime":2016,"correctAnswer":null},{"block":4,"image":"d7ori_22_left_9.0_jit11_0.9.jpg","trial":44,"didAnswer":true,"imgDirection":"left","reactionTime":1099,"correctAnswer":true},{"block":4,"image":"d7ori_6_left_9.0_jit11_0.9.jpg","trial":45,"didAnswer":false,"imgDirection":"left","reactionTime":2016,"correctAnswer":null},{"block":4,"image":"d7ori_18_left_9.0_jit11_0.9.jpg","trial":46,"didAnswer":false,"imgDirection":"left","reactionTime":2016,"correctAnswer":null},{"block":4,"image":"d7ori_11_right_9.0_jit11_0.9.jpg","trial":47,"didAnswer":false,"imgDirection":"right","reactionTime":2015,"correctAnswer":null},{"block":4,"image":"lf10Left10_low.jpg","trial":48,"didAnswer":true,"imgDirection":"left","reactionTime":684,"correctAnswer":true},{"block":4,"image":"d7ori_14_left_9.0_jit11_0.9.jpg","trial":49,"didAnswer":true,"imgDirection":"left","reactionTime":1083,"correctAnswer":true},{"block":4,"image":"d7ori_23_right_9.0_jit11_0.9.jpg","trial":50,"didAnswer":false,"imgDirection":"right","reactionTime":2016,"correctAnswer":null},{"block":4,"image":"d7ori_15_right_9.0_jit11_0.9.jpg","trial":51,"didAnswer":false,"imgDirection":"right","reactionTime":2015,"correctAnswer":null},{"block":4,"image":"d7ori_2_left_9.0_jit11_0.9.jpg","trial":52,"didAnswer":true,"imgDirection":"left","reactionTime":883,"correctAnswer":true},{"block":4,"image":"d7ori_19_right_9.0_jit11_0.9.jpg","trial":53,"didAnswer":true,"imgDirection":"right","reactionTime":1050,"correctAnswer":true},{"block":4,"image":"d7ori_3_right_9.0_jit11_0.9.jpg","trial":54,"didAnswer":false,"imgDirection":"right","reactionTime":2000,"correctAnswer":null},{"block":4,"image":"d7ori_7_right_9.0_jit11_0.9.jpg","trial":55,"didAnswer":true,"imgDirection":"right","reactionTime":1616,"correctAnswer":true},{"block":4,"image":"d10Right0NoB_low.jpg","trial":56,"didAnswer":true,"imgDirection":"right","reactionTime":750,"correctAnswer":true},{"block":5,"image":"d7ori_21_left_9.0_jit13_0.9.jpg","trial":57,"didAnswer":false,"imgDirection":"left","reactionTime":2016,"correctAnswer":null},{"block":5,"image":"d7ori_24_right_9.0_jit13_0.9.jpg","trial":58,"didAnswer":true,"imgDirection":"right","reactionTime":1733,"correctAnswer":true},{"block":5,"image":"d7ori_5_left_9.0_jit13_0.9.jpg","trial":59,"didAnswer":false,"imgDirection":"left","reactionTime":2016,"correctAnswer":null},{"block":5,"image":"d4Right4_low.jpg","trial":60,"didAnswer":true,"imgDirection":"right","reactionTime":683,"correctAnswer":true},{"block":5,"image":"d7ori_9_left_9.0_jit13_0.9.jpg","trial":61,"didAnswer":false,"imgDirection":"left","reactionTime":1999,"correctAnswer":null},{"block":5,"image":"d7ori_20_right_9.0_jit13_0.9.jpg","trial":62,"didAnswer":true,"imgDirection":"right","reactionTime":816,"correctAnswer":true},{"block":5,"image":"d7ori_8_right_9.0_jit13_0.9.jpg","trial":63,"didAnswer":true,"imgDirection":"right","reactionTime":1184,"correctAnswer":true},{"block":5,"image":"lf13Left1NoB_low.jpg","trial":64,"didAnswer":true,"imgDirection":"left","reactionTime":684,"correctAnswer":true},{"block":5,"image":"d7ori_4_right_9.0_jit13_0.9.jpg","trial":65,"didAnswer":false,"imgDirection":"right","reactionTime":2000,"correctAnswer":null},{"block":5,"image":"d7ori_17_left_9.0_jit13_0.9.jpg","trial":66,"didAnswer":true,"imgDirection":"left","reactionTime":1400,"correctAnswer":true},{"block":5,"image":"d7ori_12_right_9.0_jit13_0.9.jpg","trial":67,"didAnswer":false,"imgDirection":"right","reactionTime":2016,"correctAnswer":null},{"block":5,"image":"d7ori_1_left_9.0_jit13_0.9.jpg","trial":68,"didAnswer":false,"imgDirection":"left","reactionTime":2016,"correctAnswer":null},{"block":5,"image":"d7ori_13_left_9.0_jit13_0.9.jpg","trial":69,"didAnswer":true,"imgDirection":"left","reactionTime":1150,"correctAnswer":true},{"block":5,"image":"d7ori_16_right_9.0_jit13_0.9.jpg","trial":70,"didAnswer":false,"imgDirection":"right","reactionTime":2015,"correctAnswer":null},{"block":6,"image":"lf6Left6_low.jpg","trial":71,"didAnswer":true,"imgDirection":"left","reactionTime":584,"correctAnswer":true},{"block":6,"image":"d7ori_1_left_9.0_jit15_0.9.jpg","trial":72,"didAnswer":true,"imgDirection":"left","reactionTime":1551,"correctAnswer":true},{"block":6,"image":"d7ori_16_right_9.0_jit15_0.9.jpg","trial":73,"didAnswer":false,"imgDirection":"right","reactionTime":2016,"correctAnswer":null},{"block":6,"image":"d7ori_13_left_9.0_jit15_0.9.jpg","trial":74,"didAnswer":true,"imgDirection":"left","reactionTime":1234,"correctAnswer":true},{"block":6,"image":"d7ori_5_left_9.0_jit15_0.9.jpg","trial":75,"didAnswer":false,"imgDirection":"left","reactionTime":2015,"correctAnswer":null},{"block":6,"image":"d15Right5NoB_low.jpg","trial":76,"didAnswer":true,"imgDirection":"right","reactionTime":600,"correctAnswer":true},{"block":6,"image":"d7ori_21_left_9.0_jit15_0.9.jpg","trial":77,"didAnswer":true,"imgDirection":"left","reactionTime":1601,"correctAnswer":true},{"block":6,"image":"d7ori_8_right_9.0_jit15_0.9.jpg","trial":78,"didAnswer":false,"imgDirection":"right","reactionTime":2000,"correctAnswer":null},{"block":6,"image":"d7ori_24_right_9.0_jit15_0.9.jpg","trial":79,"didAnswer":true,"imgDirection":"right","reactionTime":1632,"correctAnswer":true},{"block":6,"image":"d7ori_17_left_9.0_jit15_0.9.jpg","trial":80,"didAnswer":true,"imgDirection":"left","reactionTime":1847,"correctAnswer":false},{"block":6,"image":"d7ori_20_right_9.0_jit15_0.9.jpg","trial":81,"didAnswer":true,"imgDirection":"right","reactionTime":1684,"correctAnswer":false},{"block":6,"image":"d7ori_12_right_9.0_jit15_0.9.jpg","trial":82,"didAnswer":false,"imgDirection":"right","reactionTime":2000,"correctAnswer":null},{"block":6,"image":"d7ori_4_right_9.0_jit15_0.9.jpg","trial":83,"didAnswer":true,"imgDirection":"right","reactionTime":1250,"correctAnswer":true},{"block":6,"image":"d7ori_9_left_9.0_jit15_0.9.jpg","trial":84,"didAnswer":false,"imgDirection":"left","reactionTime":2016,"correctAnswer":null},{"block":7,"image":"d11Right11_low.jpg","trial":85,"didAnswer":true,"imgDirection":"right","reactionTime":633,"correctAnswer":true},{"block":7,"image":"d0ori_left_9.0_0.9_10.jpg","trial":86,"didAnswer":true,"imgDirection":"left","reactionTime":933,"correctAnswer":true},{"block":7,"image":"d0ori_right_9.0_0.9_6.jpg","trial":87,"didAnswer":true,"imgDirection":"right","reactionTime":700,"correctAnswer":true},{"block":7,"image":"d0ori_left_9.0_0.9_9.jpg","trial":88,"didAnswer":true,"imgDirection":"left","reactionTime":1718,"correctAnswer":true},{"block":7,"image":"d0ori_right_9.0_0.9_10.jpg","trial":89,"didAnswer":true,"imgDirection":"right","reactionTime":1400,"correctAnswer":true},{"block":7,"image":"d0ori_right_9.0_0.9_8.jpg","trial":90,"didAnswer":true,"imgDirection":"right","reactionTime":883,"correctAnswer":true},{"block":7,"image":"d0ori_left_9.0_0.9_11.jpg","trial":91,"didAnswer":true,"imgDirection":"left","reactionTime":1034,"correctAnswer":true},{"block":7,"image":"d11Right1NoB_low.jpg","trial":92,"didAnswer":true,"imgDirection":"right","reactionTime":602,"correctAnswer":true},{"block":7,"image":"d0ori_right_9.0_0.9_9.jpg","trial":93,"didAnswer":true,"imgDirection":"right","reactionTime":1417,"correctAnswer":true},{"block":7,"image":"d0ori_left_9.0_0.9_7.jpg","trial":94,"didAnswer":true,"imgDirection":"left","reactionTime":734,"correctAnswer":true},{"block":7,"image":"d0ori_right_9.0_0.9_11.jpg","trial":95,"didAnswer":true,"imgDirection":"right","reactionTime":1284,"correctAnswer":true},{"block":7,"image":"d0ori_left_9.0_0.9_8.jpg","trial":96,"didAnswer":true,"imgDirection":"left","reactionTime":784,"correctAnswer":true},{"block":7,"image":"d0ori_right_9.0_0.9_7.jpg","trial":97,"didAnswer":true,"imgDirection":"right","reactionTime":1283,"correctAnswer":true},{"block":7,"image":"d0ori_left_9.0_0.9_6.jpg","trial":98,"didAnswer":true,"imgDirection":"left","reactionTime":867,"correctAnswer":true},{"block":8,"image":"d7ori_7_right_9.0_jit7_0.9.jpg","trial":99,"didAnswer":true,"imgDirection":"right","reactionTime":1317,"correctAnswer":true},{"block":8,"image":"d7ori_18_left_9.0_jit7_0.9.jpg","trial":100,"didAnswer":true,"imgDirection":"left","reactionTime":717,"correctAnswer":true},{"block":8,"image":"d7ori_22_left_9.0_jit7_0.9.jpg","trial":101,"didAnswer":true,"imgDirection":"left","reactionTime":1966,"correctAnswer":true},{"block":8,"image":"d7ori_23_right_9.0_jit7_0.9.jpg","trial":102,"didAnswer":true,"imgDirection":"right","reactionTime":1016,"correctAnswer":true},{"block":8,"image":"lf16Left4NoB_low.jpg","trial":103,"didAnswer":true,"imgDirection":"left","reactionTime":600,"correctAnswer":true},{"block":8,"image":"d2Right2_low.jpg","trial":104,"didAnswer":true,"imgDirection":"right","reactionTime":566,"correctAnswer":true},{"block":8,"image":"d7ori_19_right_9.0_jit7_0.9.jpg","trial":105,"didAnswer":true,"imgDirection":"right","reactionTime":1217,"correctAnswer":true},{"block":8,"image":"d7ori_2_left_9.0_jit7_0.9.jpg","trial":106,"didAnswer":true,"imgDirection":"left","reactionTime":1267,"correctAnswer":true},{"block":8,"image":"d7ori_15_right_9.0_jit7_0.9.jpg","trial":107,"didAnswer":true,"imgDirection":"right","reactionTime":1734,"correctAnswer":true},{"block":8,"image":"d7ori_14_left_9.0_jit7_0.9.jpg","trial":108,"didAnswer":true,"imgDirection":"left","reactionTime":1733,"correctAnswer":false},{"block":8,"image":"d7ori_10_left_9.0_jit7_0.9.jpg","trial":109,"didAnswer":true,"imgDirection":"left","reactionTime":1516,"correctAnswer":true},{"block":8,"image":"d7ori_6_left_9.0_jit7_0.9.jpg","trial":110,"didAnswer":true,"imgDirection":"left","reactionTime":1034,"correctAnswer":true},{"block":8,"image":"d7ori_11_right_9.0_jit7_0.9.jpg","trial":111,"didAnswer":true,"imgDirection":"right","reactionTime":823,"correctAnswer":true},{"block":8,"image":"d7ori_3_right_9.0_jit7_0.9.jpg","trial":112,"didAnswer":true,"imgDirection":"right","reactionTime":1416,"correctAnswer":true},{"block":9,"image":"d19Right9NoB_low.jpg","trial":113,"didAnswer":true,"imgDirection":"right","reactionTime":683,"correctAnswer":true},{"block":9,"image":"lf9Left9_low.jpg","trial":114,"didAnswer":true,"imgDirection":"left","reactionTime":499,"correctAnswer":true},{"block":9,"image":"right-d7ori_23_right_9.0_jit9_0.9.jpg","trial":115,"didAnswer":true,"imgDirection":"right","reactionTime":883,"correctAnswer":true},{"block":9,"image":"right-d7ori_3_right_9.0_jit9_0.9.jpg","trial":116,"didAnswer":true,"imgDirection":"right","reactionTime":1000,"correctAnswer":true},{"block":9,"image":"right-d7ori_11_right_9.0_jit9_0.9.jpg","trial":117,"didAnswer":true,"imgDirection":"right","reactionTime":1182,"correctAnswer":true},{"block":9,"image":"right-d7ori_7_right_9.0_jit9_0.9.jpg","trial":118,"didAnswer":true,"imgDirection":"right","reactionTime":967,"correctAnswer":true},{"block":9,"image":"left-d7ori_22_left_9.0_jit9_0.9.jpg","trial":119,"didAnswer":true,"imgDirection":"left","reactionTime":883,"correctAnswer":true},{"block":9,"image":"left-d7ori_2_left_9.0_jit9_0.9.jpg","trial":120,"didAnswer":true,"imgDirection":"left","reactionTime":1800,"correctAnswer":true},{"block":9,"image":"right-d7ori_19_right_9.0_jit9_0.9.jpg","trial":121,"didAnswer":true,"imgDirection":"right","reactionTime":1167,"correctAnswer":true},{"block":9,"image":"left-d7ori_14_left_9.0_jit9_0.9.jpg","trial":122,"didAnswer":true,"imgDirection":"left","reactionTime":1266,"correctAnswer":true},{"block":9,"image":"left-d7ori_6_left_9.0_jit9_0.9.jpg","trial":123,"didAnswer":true,"imgDirection":"left","reactionTime":1284,"correctAnswer":true},{"block":9,"image":"right-d7ori_15_right_9.0_jit9_0.9.jpg","trial":124,"didAnswer":true,"imgDirection":"right","reactionTime":1316,"correctAnswer":true},{"block":9,"image":"left-d7ori_10_left_9.0_jit9_0.9.jpg","trial":125,"didAnswer":true,"imgDirection":"left","reactionTime":1400,"correctAnswer":true},{"block":9,"image":"left-d7ori_18_left_9.0_jit9_0.9.jpg","trial":126,"didAnswer":true,"imgDirection":"left","reactionTime":1084,"correctAnswer":true},{"block":10,"image":"d12Right2NoB_low.jpg","trial":127,"didAnswer":true,"imgDirection":"right","reactionTime":616,"correctAnswer":true},{"block":10,"image":"d7ori_8_right_9.0_jit11_0.9.jpg","trial":128,"didAnswer":true,"imgDirection":"right","reactionTime":1184,"correctAnswer":true},{"block":10,"image":"d7ori_20_right_9.0_jit11_0.9.jpg","trial":129,"didAnswer":false,"imgDirection":"right","reactionTime":2016,"correctAnswer":null},{"block":10,"image":"d7ori_21_left_9.0_jit11_0.9.jpg","trial":130,"didAnswer":true,"imgDirection":"left","reactionTime":1633,"correctAnswer":true},{"block":10,"image":"d7ori_17_left_9.0_jit11_0.9.jpg","trial":131,"didAnswer":false,"imgDirection":"left","reactionTime":2015,"correctAnswer":null},{"block":10,"image":"d7ori_16_right_9.0_jit11_0.9.jpg","trial":132,"didAnswer":false,"imgDirection":"right","reactionTime":2015,"correctAnswer":null},{"block":10,"image":"d7ori_24_right_9.0_jit11_0.9.jpg","trial":133,"didAnswer":false,"imgDirection":"right","reactionTime":2017,"correctAnswer":null},{"block":10,"image":"d7ori_12_right_9.0_jit11_0.9.jpg","trial":134,"didAnswer":true,"imgDirection":"right","reactionTime":1199,"correctAnswer":true},{"block":10,"image":"d7ori_5_left_9.0_jit11_0.9.jpg","trial":135,"didAnswer":true,"imgDirection":"left","reactionTime":967,"correctAnswer":true},{"block":10,"image":"d7ori_1_left_9.0_jit11_0.9.jpg","trial":136,"didAnswer":false,"imgDirection":"left","reactionTime":2016,"correctAnswer":null},{"block":10,"image":"lf7Left7_low.jpg","trial":137,"didAnswer":true,"imgDirection":"left","reactionTime":651,"correctAnswer":true},{"block":10,"image":"d7ori_13_left_9.0_jit11_0.9.jpg","trial":138,"didAnswer":true,"imgDirection":"left","reactionTime":1300,"correctAnswer":true},{"block":10,"image":"d7ori_9_left_9.0_jit11_0.9.jpg","trial":139,"didAnswer":false,"imgDirection":"left","reactionTime":2016,"correctAnswer":null},{"block":10,"image":"d7ori_4_right_9.0_jit11_0.9.jpg","trial":140,"didAnswer":true,"imgDirection":"right","reactionTime":1700,"correctAnswer":true},{"block":11,"image":"d7ori_15_right_9.0_jit13_0.9.jpg","trial":141,"didAnswer":true,"imgDirection":"right","reactionTime":1332,"correctAnswer":true},{"block":11,"image":"d7ori_10_left_9.0_jit13_0.9.jpg","trial":142,"didAnswer":false,"imgDirection":"left","reactionTime":2016,"correctAnswer":null},{"block":11,"image":"d7ori_22_left_9.0_jit13_0.9.jpg","trial":143,"didAnswer":true,"imgDirection":"left","reactionTime":1299,"correctAnswer":true},{"block":11,"image":"d7ori_19_right_9.0_jit13_0.9.jpg","trial":144,"didAnswer":false,"imgDirection":"right","reactionTime":2015,"correctAnswer":null},{"block":11,"image":"d7ori_14_left_9.0_jit13_0.9.jpg","trial":145,"didAnswer":false,"imgDirection":"left","reactionTime":2016,"correctAnswer":null},{"block":11,"image":"d7ori_2_left_9.0_jit13_0.9.jpg","trial":146,"didAnswer":false,"imgDirection":"left","reactionTime":2015,"correctAnswer":null},{"block":11,"image":"d7ori_11_right_9.0_jit13_0.9.jpg","trial":147,"didAnswer":true,"imgDirection":"right","reactionTime":1550,"correctAnswer":true},{"block":11,"image":"d7ori_18_left_9.0_jit13_0.9.jpg","trial":148,"didAnswer":false,"imgDirection":"left","reactionTime":2016,"correctAnswer":null},{"block":11,"image":"lf15Left3NoB_low.jpg","trial":149,"didAnswer":true,"imgDirection":"left","reactionTime":567,"correctAnswer":true},{"block":11,"image":"d3Right3_low.jpg","trial":150,"didAnswer":true,"imgDirection":"right","reactionTime":533,"correctAnswer":true},{"block":11,"image":"d7ori_7_right_9.0_jit13_0.9.jpg","trial":151,"didAnswer":false,"imgDirection":"right","reactionTime":2000,"correctAnswer":null},{"block":11,"image":"d7ori_6_left_9.0_jit13_0.9.jpg","trial":152,"didAnswer":false,"imgDirection":"left","reactionTime":2015,"correctAnswer":null},{"block":11,"image":"d7ori_3_right_9.0_jit13_0.9.jpg","trial":153,"didAnswer":true,"imgDirection":"right","reactionTime":1033,"correctAnswer":false},{"block":11,"image":"d7ori_23_right_9.0_jit13_0.9.jpg","trial":154,"didAnswer":false,"imgDirection":"right","reactionTime":2007,"correctAnswer":null},{"block":12,"image":"d7ori_6_left_9.0_jit15_0.9.jpg","trial":155,"didAnswer":true,"imgDirection":"left","reactionTime":1316,"correctAnswer":true},{"block":12,"image":"d7ori_11_right_9.0_jit15_0.9.jpg","trial":156,"didAnswer":true,"imgDirection":"right","reactionTime":1434,"correctAnswer":true},{"block":12,"image":"d7ori_2_left_9.0_jit15_0.9.jpg","trial":157,"didAnswer":true,"imgDirection":"left","reactionTime":1550,"correctAnswer":false},{"block":12,"image":"d7ori_14_left_9.0_jit15_0.9.jpg","trial":158,"didAnswer":false,"imgDirection":"left","reactionTime":2016,"correctAnswer":null},{"block":12,"image":"lf21Left9NoB_low.jpg","trial":159,"didAnswer":true,"imgDirection":"left","reactionTime":583,"correctAnswer":true},{"block":12,"image":"d7ori_3_right_9.0_jit15_0.9.jpg","trial":160,"didAnswer":false,"imgDirection":"right","reactionTime":2000,"correctAnswer":null},{"block":12,"image":"d7ori_18_left_9.0_jit15_0.9.jpg","trial":161,"didAnswer":false,"imgDirection":"left","reactionTime":2000,"correctAnswer":null},{"block":12,"image":"lf4Left4_low.jpg","trial":162,"didAnswer":true,"imgDirection":"left","reactionTime":633,"correctAnswer":true},{"block":12,"image":"d7ori_10_left_9.0_jit15_0.9.jpg","trial":163,"didAnswer":false,"imgDirection":"left","reactionTime":2016,"correctAnswer":null},{"block":12,"image":"d7ori_19_right_9.0_jit15_0.9.jpg","trial":164,"didAnswer":false,"imgDirection":"right","reactionTime":2015,"correctAnswer":null},{"block":12,"image":"d7ori_7_right_9.0_jit15_0.9.jpg","trial":165,"didAnswer":false,"imgDirection":"right","reactionTime":2000,"correctAnswer":null},{"block":12,"image":"d7ori_23_right_9.0_jit15_0.9.jpg","trial":166,"didAnswer":true,"imgDirection":"right","reactionTime":1800,"correctAnswer":true},{"block":12,"image":"d7ori_15_right_9.0_jit15_0.9.jpg","trial":167,"didAnswer":true,"imgDirection":"right","reactionTime":1350,"correctAnswer":false},{"block":12,"image":"d7ori_22_left_9.0_jit15_0.9.jpg","trial":168,"didAnswer":true,"imgDirection":"left","reactionTime":1551,"correctAnswer":true},{"block":13,"image":"d0ori_left_9.0_0.9_16.jpg","trial":169,"didAnswer":true,"imgDirection":"left","reactionTime":1066,"correctAnswer":true},{"block":13,"image":"d0ori_right_9.0_0.9_15.jpg","trial":170,"didAnswer":true,"imgDirection":"right","reactionTime":749,"correctAnswer":true},{"block":13,"image":"d0ori_right_9.0_0.9_17.jpg","trial":171,"didAnswer":true,"imgDirection":"right","reactionTime":800,"correctAnswer":true},{"block":13,"image":"d17Right7NoB_low.jpg","trial":172,"didAnswer":true,"imgDirection":"right","reactionTime":584,"correctAnswer":true},{"block":13,"image":"d0ori_right_9.0_0.9_13.jpg","trial":173,"didAnswer":true,"imgDirection":"right","reactionTime":1499,"correctAnswer":false},{"block":13,"image":"d0ori_left_9.0_0.9_15.jpg","trial":174,"didAnswer":true,"imgDirection":"left","reactionTime":1434,"correctAnswer":true},{"block":13,"image":"d0ori_left_9.0_0.9_14.jpg","trial":175,"didAnswer":true,"imgDirection":"left","reactionTime":800,"correctAnswer":true},{"block":13,"image":"d0ori_left_9.0_0.9_17.jpg","trial":176,"didAnswer":true,"imgDirection":"left","reactionTime":651,"correctAnswer":true},{"block":13,"image":"d0ori_left_9.0_0.9_12.jpg","trial":177,"didAnswer":true,"imgDirection":"left","reactionTime":617,"correctAnswer":true},{"block":13,"image":"d0ori_left_9.0_0.9_13.jpg","trial":178,"didAnswer":true,"imgDirection":"left","reactionTime":1017,"correctAnswer":true},{"block":13,"image":"d0ori_right_9.0_0.9_12.jpg","trial":179,"didAnswer":true,"imgDirection":"right","reactionTime":679,"correctAnswer":true},{"block":13,"image":"d0ori_right_9.0_0.9_14.jpg","trial":180,"didAnswer":true,"imgDirection":"right","reactionTime":784,"correctAnswer":true},{"block":13,"image":"d0Right0_low.jpg","trial":181,"didAnswer":true,"imgDirection":"right","reactionTime":550,"correctAnswer":true},{"block":13,"image":"d0ori_right_9.0_0.9_16.jpg","trial":182,"didAnswer":true,"imgDirection":"right","reactionTime":733,"correctAnswer":true},{"block":14,"image":"d7ori_11_left_9.0_jit7_0.9.jpg","trial":183,"didAnswer":true,"imgDirection":"left","reactionTime":815,"correctAnswer":true},{"block":14,"image":"d7ori_2_right_9.0_jit7_0.9.jpg","trial":184,"didAnswer":true,"imgDirection":"right","reactionTime":717,"correctAnswer":true},{"block":14,"image":"d7ori_14_right_9.0_jit7_0.9.jpg","trial":185,"didAnswer":true,"imgDirection":"right","reactionTime":600,"correctAnswer":true},{"block":14,"image":"d7ori_10_right_9.0_jit7_0.9.jpg","trial":186,"didAnswer":true,"imgDirection":"right","reactionTime":1183,"correctAnswer":true},{"block":14,"image":"d7ori_22_right_9.0_jit7_0.9.jpg","trial":187,"didAnswer":true,"imgDirection":"right","reactionTime":1468,"correctAnswer":true},{"block":14,"image":"d7ori_18_right_9.0_jit7_0.9.jpg","trial":188,"didAnswer":true,"imgDirection":"right","reactionTime":1250,"correctAnswer":true},{"block":14,"image":"d7ori_19_left_9.0_jit7_0.9.jpg","trial":189,"didAnswer":true,"imgDirection":"left","reactionTime":1167,"correctAnswer":true},{"block":14,"image":"d10Right10_low.jpg","trial":190,"didAnswer":true,"imgDirection":"right","reactionTime":650,"correctAnswer":true},{"block":14,"image":"d7ori_3_left_9.0_jit7_0.9.jpg","trial":191,"didAnswer":true,"imgDirection":"left","reactionTime":1583,"correctAnswer":true},{"block":14,"image":"d7ori_6_right_9.0_jit7_0.9.jpg","trial":192,"didAnswer":true,"imgDirection":"right","reactionTime":1666,"correctAnswer":true},{"block":14,"image":"d7ori_15_left_9.0_jit7_0.9.jpg","trial":193,"didAnswer":true,"imgDirection":"left","reactionTime":1234,"correctAnswer":true},{"block":14,"image":"d23Right11NoB_low.jpg","trial":194,"didAnswer":true,"imgDirection":"right","reactionTime":617,"correctAnswer":true},{"block":14,"image":"d7ori_23_left_9.0_jit7_0.9.jpg","trial":195,"didAnswer":true,"imgDirection":"left","reactionTime":784,"correctAnswer":true},{"block":14,"image":"d7ori_7_left_9.0_jit7_0.9.jpg","trial":196,"didAnswer":true,"imgDirection":"left","reactionTime":1316,"correctAnswer":true},{"block":15,"image":"right-d7ori_14_right_9.0_jit9_0.9.jpg","trial":197,"didAnswer":true,"imgDirection":"right","reactionTime":1217,"correctAnswer":false},{"block":15,"image":"left-d7ori_11_left_9.0_jit9_0.9.jpg","trial":198,"didAnswer":true,"imgDirection":"left","reactionTime":1951,"correctAnswer":false},{"block":15,"image":"right-d7ori_2_right_9.0_jit9_0.9.jpg","trial":199,"didAnswer":false,"imgDirection":"right","reactionTime":1999,"correctAnswer":null},{"block":15,"image":"right-d7ori_22_right_9.0_jit9_0.9.jpg","trial":200,"didAnswer":true,"imgDirection":"right","reactionTime":1584,"correctAnswer":true},{"block":15,"image":"left-d7ori_19_left_9.0_jit9_0.9.jpg","trial":201,"didAnswer":true,"imgDirection":"left","reactionTime":733,"correctAnswer":true},{"block":15,"image":"left-d7ori_15_left_9.0_jit9_0.9.jpg","trial":202,"didAnswer":true,"imgDirection":"left","reactionTime":968,"correctAnswer":true},{"block":15,"image":"right-d7ori_10_right_9.0_jit9_0.9.jpg","trial":203,"didAnswer":true,"imgDirection":"right","reactionTime":1184,"correctAnswer":true},{"block":15,"image":"lf22Left10NoB_low.jpg","trial":204,"didAnswer":true,"imgDirection":"left","reactionTime":533,"correctAnswer":true},{"block":15,"image":"right-d7ori_6_right_9.0_jit9_0.9.jpg","trial":205,"didAnswer":true,"imgDirection":"right","reactionTime":1283,"correctAnswer":true},{"block":15,"image":"right-d7ori_18_right_9.0_jit9_0.9.jpg","trial":206,"didAnswer":true,"imgDirection":"right","reactionTime":1584,"correctAnswer":true},{"block":15,"image":"left-d7ori_23_left_9.0_jit9_0.9.jpg","trial":207,"didAnswer":true,"imgDirection":"left","reactionTime":1834,"correctAnswer":true},{"block":15,"image":"left-d7ori_7_left_9.0_jit9_0.9.jpg","trial":208,"didAnswer":true,"imgDirection":"left","reactionTime":1384,"correctAnswer":true},{"block":15,"image":"lf11Left11_low.jpg","trial":209,"didAnswer":true,"imgDirection":"left","reactionTime":615,"correctAnswer":true},{"block":15,"image":"left-d7ori_3_left_9.0_jit9_0.9.jpg","trial":210,"didAnswer":false,"imgDirection":"left","reactionTime":1999,"correctAnswer":null},{"block":16,"image":"d7ori_16_left_9.0_jit11_0.9.jpg","trial":211,"didAnswer":true,"imgDirection":"left","reactionTime":882,"correctAnswer":true},{"block":16,"image":"d7ori_21_right_9.0_jit11_0.9.jpg","trial":212,"didAnswer":false,"imgDirection":"right","reactionTime":2015,"correctAnswer":null},{"block":16,"image":"d7ori_13_right_9.0_jit11_0.9.jpg","trial":213,"didAnswer":true,"imgDirection":"right","reactionTime":1383,"correctAnswer":true},{"block":16,"image":"d7ori_9_right_9.0_jit11_0.9.jpg","trial":214,"didAnswer":false,"imgDirection":"right","reactionTime":2017,"correctAnswer":null},{"block":16,"image":"d7ori_5_right_9.0_jit11_0.9.jpg","trial":215,"didAnswer":true,"imgDirection":"right","reactionTime":1333,"correctAnswer":false},{"block":16,"image":"d7ori_8_left_9.0_jit11_0.9.jpg","trial":216,"didAnswer":true,"imgDirection":"left","reactionTime":1099,"correctAnswer":true},{"block":16,"image":"d7ori_12_left_9.0_jit11_0.9.jpg","trial":217,"didAnswer":true,"imgDirection":"left","reactionTime":1434,"correctAnswer":true},{"block":16,"image":"d7ori_20_left_9.0_jit11_0.9.jpg","trial":218,"didAnswer":false,"imgDirection":"left","reactionTime":2016,"correctAnswer":null},{"block":16,"image":"d7ori_1_right_9.0_jit11_0.9.jpg","trial":219,"didAnswer":false,"imgDirection":"right","reactionTime":2016,"correctAnswer":null},{"block":16,"image":"d7ori_24_left_9.0_jit11_0.9.jpg","trial":220,"didAnswer":false,"imgDirection":"left","reactionTime":2016,"correctAnswer":null},{"block":16,"image":"lf3Left3_low.jpg","trial":221,"didAnswer":true,"imgDirection":"left","reactionTime":716,"correctAnswer":true},{"block":16,"image":"lf12Left0NoB_low.jpg","trial":222,"didAnswer":true,"imgDirection":"left","reactionTime":566,"correctAnswer":true},{"block":16,"image":"d7ori_17_right_9.0_jit11_0.9.jpg","trial":223,"didAnswer":true,"imgDirection":"right","reactionTime":1433,"correctAnswer":true},{"block":16,"image":"d7ori_4_left_9.0_jit11_0.9.jpg","trial":224,"didAnswer":true,"imgDirection":"left","reactionTime":1434,"correctAnswer":true},{"block":17,"image":"d7ori_15_left_9.0_jit13_0.9.jpg","trial":225,"didAnswer":true,"imgDirection":"left","reactionTime":1350,"correctAnswer":true},{"block":17,"image":"d7ori_19_left_9.0_jit13_0.9.jpg","trial":226,"didAnswer":false,"imgDirection":"left","reactionTime":2016,"correctAnswer":null},{"block":17,"image":"d7ori_22_right_9.0_jit13_0.9.jpg","trial":227,"didAnswer":true,"imgDirection":"right","reactionTime":1350,"correctAnswer":true},{"block":17,"image":"d7ori_3_left_9.0_jit13_0.9.jpg","trial":228,"didAnswer":true,"imgDirection":"left","reactionTime":1700,"correctAnswer":true},{"block":17,"image":"d7ori_23_left_9.0_jit13_0.9.jpg","trial":229,"didAnswer":true,"imgDirection":"left","reactionTime":1516,"correctAnswer":true},{"block":17,"image":"d7ori_14_right_9.0_jit13_0.9.jpg","trial":230,"didAnswer":true,"imgDirection":"right","reactionTime":867,"correctAnswer":true},{"block":17,"image":"d7ori_7_left_9.0_jit13_0.9.jpg","trial":231,"didAnswer":false,"imgDirection":"left","reactionTime":2000,"correctAnswer":null},{"block":17,"image":"d7ori_6_right_9.0_jit13_0.9.jpg","trial":232,"didAnswer":true,"imgDirection":"right","reactionTime":1667,"correctAnswer":false},{"block":17,"image":"d5Right5_low.jpg","trial":233,"didAnswer":true,"imgDirection":"right","reactionTime":551,"correctAnswer":true},{"block":17,"image":"d16Right6NoB_low.jpg","trial":234,"didAnswer":true,"imgDirection":"right","reactionTime":567,"correctAnswer":true},{"block":17,"image":"d7ori_18_right_9.0_jit13_0.9.jpg","trial":235,"didAnswer":false,"imgDirection":"right","reactionTime":2016,"correctAnswer":null},{"block":17,"image":"d7ori_10_right_9.0_jit13_0.9.jpg","trial":236,"didAnswer":true,"imgDirection":"right","reactionTime":1632,"correctAnswer":true},{"block":17,"image":"d7ori_2_right_9.0_jit13_0.9.jpg","trial":237,"didAnswer":true,"imgDirection":"right","reactionTime":1117,"correctAnswer":false},{"block":17,"image":"d7ori_11_left_9.0_jit13_0.9.jpg","trial":238,"didAnswer":false,"imgDirection":"left","reactionTime":2000,"correctAnswer":null},{"block":18,"image":"lf17Left5NoB_low.jpg","trial":239,"didAnswer":true,"imgDirection":"left","reactionTime":566,"correctAnswer":true},{"block":18,"image":"d7ori_10_right_9.0_jit15_0.9.jpg","trial":240,"didAnswer":true,"imgDirection":"right","reactionTime":868,"correctAnswer":true},{"block":18,"image":"d7ori_19_left_9.0_jit15_0.9.jpg","trial":241,"didAnswer":true,"imgDirection":"left","reactionTime":1000,"correctAnswer":true},{"block":18,"image":"d7ori_15_left_9.0_jit15_0.9.jpg","trial":242,"didAnswer":true,"imgDirection":"left","reactionTime":1163,"correctAnswer":true},{"block":18,"image":"d7ori_7_left_9.0_jit15_0.9.jpg","trial":243,"didAnswer":true,"imgDirection":"left","reactionTime":1450,"correctAnswer":false},{"block":18,"image":"d7ori_22_right_9.0_jit15_0.9.jpg","trial":244,"didAnswer":true,"imgDirection":"right","reactionTime":1716,"correctAnswer":true},{"block":18,"image":"d7ori_23_left_9.0_jit15_0.9.jpg","trial":245,"didAnswer":true,"imgDirection":"left","reactionTime":1234,"correctAnswer":true},{"block":18,"image":"d7ori_18_right_9.0_jit15_0.9.jpg","trial":246,"didAnswer":false,"imgDirection":"right","reactionTime":2016,"correctAnswer":null},{"block":18,"image":"d7ori_14_right_9.0_jit15_0.9.jpg","trial":247,"didAnswer":false,"imgDirection":"right","reactionTime":2017,"correctAnswer":null},{"block":18,"image":"d7ori_2_right_9.0_jit15_0.9.jpg","trial":248,"didAnswer":false,"imgDirection":"right","reactionTime":1999,"correctAnswer":null},{"block":18,"image":"d7ori_6_right_9.0_jit15_0.9.jpg","trial":249,"didAnswer":false,"imgDirection":"right","reactionTime":2016,"correctAnswer":null},{"block":18,"image":"d7ori_11_left_9.0_jit15_0.9.jpg","trial":250,"didAnswer":false,"imgDirection":"left","reactionTime":2016,"correctAnswer":null},{"block":18,"image":"d7ori_3_left_9.0_jit15_0.9.jpg","trial":251,"didAnswer":true,"imgDirection":"left","reactionTime":1183,"correctAnswer":true},{"block":18,"image":"d8Right8_low.jpg","trial":252,"didAnswer":true,"imgDirection":"right","reactionTime":649,"correctAnswer":true},{"block":19,"image":"d0ori_right_9.0_0.9_18.jpg","trial":253,"didAnswer":true,"imgDirection":"right","reactionTime":1133,"correctAnswer":true},{"block":19,"image":"d0ori_right_9.0_0.9_21.jpg","trial":254,"didAnswer":true,"imgDirection":"right","reactionTime":649,"correctAnswer":true},{"block":19,"image":"d0ori_right_9.0_0.9_20.jpg","trial":255,"didAnswer":true,"imgDirection":"right","reactionTime":950,"correctAnswer":true},{"block":19,"image":"d0ori_left_9.0_0.9_22.jpg","trial":256,"didAnswer":true,"imgDirection":"left","reactionTime":699,"correctAnswer":true},{"block":19,"image":"d0ori_right_9.0_0.9_22.jpg","trial":257,"didAnswer":true,"imgDirection":"right","reactionTime":583,"correctAnswer":true},{"block":19,"image":"d0ori_left_9.0_0.9_21.jpg","trial":258,"didAnswer":true,"imgDirection":"left","reactionTime":599,"correctAnswer":true},{"block":19,"image":"lf0Left0_low.jpg","trial":259,"didAnswer":true,"imgDirection":"left","reactionTime":550,"correctAnswer":true},{"block":19,"image":"d0ori_left_9.0_0.9_20.jpg","trial":260,"didAnswer":true,"imgDirection":"left","reactionTime":800,"correctAnswer":true},{"block":19,"image":"d0ori_right_9.0_0.9_19.jpg","trial":261,"didAnswer":true,"imgDirection":"right","reactionTime":734,"correctAnswer":true},{"block":19,"image":"d0ori_left_9.0_0.9_23.jpg","trial":262,"didAnswer":true,"imgDirection":"left","reactionTime":567,"correctAnswer":true},{"block":19,"image":"d13Right3NoB_low.jpg","trial":263,"didAnswer":true,"imgDirection":"right","reactionTime":501,"correctAnswer":true},{"block":19,"image":"d0ori_left_9.0_0.9_18.jpg","trial":264,"didAnswer":true,"imgDirection":"left","reactionTime":600,"correctAnswer":true},{"block":19,"image":"d0ori_left_9.0_0.9_19.jpg","trial":265,"didAnswer":true,"imgDirection":"left","reactionTime":551,"correctAnswer":true},{"block":19,"image":"d0ori_right_9.0_0.9_23.jpg","trial":266,"didAnswer":true,"imgDirection":"right","reactionTime":616,"correctAnswer":true},{"block":20,"image":"d7ori_5_right_9.0_jit7_0.9.jpg","trial":267,"didAnswer":true,"imgDirection":"right","reactionTime":916,"correctAnswer":true},{"block":20,"image":"d7ori_1_right_9.0_jit7_0.9.jpg","trial":268,"didAnswer":true,"imgDirection":"right","reactionTime":1332,"correctAnswer":true},{"block":20,"image":"lf1Left1_low.jpg","trial":269,"didAnswer":true,"imgDirection":"left","reactionTime":567,"correctAnswer":true},{"block":20,"image":"d7ori_4_left_9.0_jit7_0.9.jpg","trial":270,"didAnswer":true,"imgDirection":"left","reactionTime":1134,"correctAnswer":true},{"block":20,"image":"d7ori_8_left_9.0_jit7_0.9.jpg","trial":271,"didAnswer":true,"imgDirection":"left","reactionTime":1017,"correctAnswer":true},{"block":20,"image":"d7ori_9_right_9.0_jit7_0.9.jpg","trial":272,"didAnswer":true,"imgDirection":"right","reactionTime":789,"correctAnswer":true},{"block":20,"image":"d7ori_16_left_9.0_jit7_0.9.jpg","trial":273,"didAnswer":true,"imgDirection":"left","reactionTime":1184,"correctAnswer":true},{"block":20,"image":"d7ori_21_right_9.0_jit7_0.9.jpg","trial":274,"didAnswer":true,"imgDirection":"right","reactionTime":883,"correctAnswer":true},{"block":20,"image":"d7ori_17_right_9.0_jit7_0.9.jpg","trial":275,"didAnswer":true,"imgDirection":"right","reactionTime":1084,"correctAnswer":true},{"block":20,"image":"d22Right10NoB_low.jpg","trial":276,"didAnswer":true,"imgDirection":"right","reactionTime":584,"correctAnswer":true},{"block":20,"image":"d7ori_13_right_9.0_jit7_0.9.jpg","trial":277,"didAnswer":true,"imgDirection":"right","reactionTime":649,"correctAnswer":true},{"block":20,"image":"d7ori_20_left_9.0_jit7_0.9.jpg","trial":278,"didAnswer":true,"imgDirection":"left","reactionTime":717,"correctAnswer":true},{"block":20,"image":"d7ori_12_left_9.0_jit7_0.9.jpg","trial":279,"didAnswer":true,"imgDirection":"left","reactionTime":1000,"correctAnswer":true},{"block":20,"image":"d7ori_24_left_9.0_jit7_0.9.jpg","trial":280,"didAnswer":true,"imgDirection":"left","reactionTime":679,"correctAnswer":true},{"block":21,"image":"right-d7ori_5_right_9.0_jit9_0.9.jpg","trial":281,"didAnswer":true,"imgDirection":"right","reactionTime":983,"correctAnswer":true},{"block":21,"image":"lf14Left2NoB_low.jpg","trial":282,"didAnswer":true,"imgDirection":"left","reactionTime":534,"correctAnswer":true},{"block":21,"image":"right-d7ori_1_right_9.0_jit9_0.9.jpg","trial":283,"didAnswer":true,"imgDirection":"right","reactionTime":716,"correctAnswer":true},{"block":21,"image":"left-d7ori_16_left_9.0_jit9_0.9.jpg","trial":284,"didAnswer":true,"imgDirection":"left","reactionTime":1116,"correctAnswer":true},{"block":21,"image":"left-d7ori_20_left_9.0_jit9_0.9.jpg","trial":285,"didAnswer":true,"imgDirection":"left","reactionTime":616,"correctAnswer":true},{"block":21,"image":"right-d7ori_9_right_9.0_jit9_0.9.jpg","trial":286,"didAnswer":true,"imgDirection":"right","reactionTime":1200,"correctAnswer":true},{"block":21,"image":"left-d7ori_4_left_9.0_jit9_0.9.jpg","trial":287,"didAnswer":true,"imgDirection":"left","reactionTime":566,"correctAnswer":true},{"block":21,"image":"left-d7ori_24_left_9.0_jit9_0.9.jpg","trial":288,"didAnswer":true,"imgDirection":"left","reactionTime":1833,"correctAnswer":true},{"block":21,"image":"right-d7ori_13_right_9.0_jit9_0.9.jpg","trial":289,"didAnswer":false,"imgDirection":"right","reactionTime":2015,"correctAnswer":null},{"block":21,"image":"right-d7ori_17_right_9.0_jit9_0.9.jpg","trial":290,"didAnswer":true,"imgDirection":"right","reactionTime":1201,"correctAnswer":false},{"block":21,"image":"left-d7ori_12_left_9.0_jit9_0.9.jpg","trial":291,"didAnswer":false,"imgDirection":"left","reactionTime":2016,"correctAnswer":null},{"block":21,"image":"right-d7ori_21_right_9.0_jit9_0.9.jpg","trial":292,"didAnswer":false,"imgDirection":"right","reactionTime":2015,"correctAnswer":null},{"block":21,"image":"d9Right9_low.jpg","trial":293,"didAnswer":true,"imgDirection":"right","reactionTime":617,"correctAnswer":true},{"block":21,"image":"left-d7ori_8_left_9.0_jit9_0.9.jpg","trial":294,"didAnswer":true,"imgDirection":"left","reactionTime":1234,"correctAnswer":true},{"block":22,"image":"lf8Left8_low.jpg","trial":295,"didAnswer":true,"imgDirection":"left","reactionTime":517,"correctAnswer":true},{"block":22,"image":"d7ori_14_right_9.0_jit11_0.9.jpg","trial":296,"didAnswer":true,"imgDirection":"right","reactionTime":867,"correctAnswer":true},{"block":22,"image":"d7ori_23_left_9.0_jit11_0.9.jpg","trial":297,"didAnswer":true,"imgDirection":"left","reactionTime":1116,"correctAnswer":true},{"block":22,"image":"lf19Left7NoB_low.jpg","trial":298,"didAnswer":true,"imgDirection":"left","reactionTime":667,"correctAnswer":true},{"block":22,"image":"d7ori_15_left_9.0_jit11_0.9.jpg","trial":299,"didAnswer":true,"imgDirection":"left","reactionTime":984,"correctAnswer":true},{"block":22,"image":"d7ori_2_right_9.0_jit11_0.9.jpg","trial":300,"didAnswer":true,"imgDirection":"right","reactionTime":1850,"correctAnswer":false},{"block":22,"image":"d7ori_10_right_9.0_jit11_0.9.jpg","trial":301,"didAnswer":false,"imgDirection":"right","reactionTime":2015,"correctAnswer":null},{"block":22,"image":"d7ori_22_right_9.0_jit11_0.9.jpg","trial":302,"didAnswer":false,"imgDirection":"right","reactionTime":2016,"correctAnswer":null},{"block":22,"image":"d7ori_19_left_9.0_jit11_0.9.jpg","trial":303,"didAnswer":false,"imgDirection":"left","reactionTime":2015,"correctAnswer":null},{"block":22,"image":"d7ori_7_left_9.0_jit11_0.9.jpg","trial":304,"didAnswer":true,"imgDirection":"left","reactionTime":932,"correctAnswer":true},{"block":22,"image":"d7ori_3_left_9.0_jit11_0.9.jpg","trial":305,"didAnswer":true,"imgDirection":"left","reactionTime":1000,"correctAnswer":true},{"block":22,"image":"d7ori_6_right_9.0_jit11_0.9.jpg","trial":306,"didAnswer":true,"imgDirection":"right","reactionTime":1565,"correctAnswer":true},{"block":22,"image":"d7ori_11_left_9.0_jit11_0.9.jpg","trial":307,"didAnswer":false,"imgDirection":"left","reactionTime":2015,"correctAnswer":null},{"block":22,"image":"d7ori_18_right_9.0_jit11_0.9.jpg","trial":308,"didAnswer":false,"imgDirection":"right","reactionTime":2015,"correctAnswer":null},{"block":23,"image":"d7ori_1_right_9.0_jit13_0.9.jpg","trial":309,"didAnswer":true,"imgDirection":"right","reactionTime":1266,"correctAnswer":true},{"block":23,"image":"d7ori_20_left_9.0_jit13_0.9.jpg","trial":310,"didAnswer":true,"imgDirection":"left","reactionTime":1566,"correctAnswer":true},{"block":23,"image":"d7ori_16_left_9.0_jit13_0.9.jpg","trial":311,"didAnswer":true,"imgDirection":"left","reactionTime":1266,"correctAnswer":true},{"block":23,"image":"d7ori_9_right_9.0_jit13_0.9.jpg","trial":312,"didAnswer":true,"imgDirection":"right","reactionTime":1583,"correctAnswer":true},{"block":23,"image":"d7ori_8_left_9.0_jit13_0.9.jpg","trial":313,"didAnswer":true,"imgDirection":"left","reactionTime":1668,"correctAnswer":true},{"block":23,"image":"d18Right8NoB_low.jpg","trial":314,"didAnswer":true,"imgDirection":"right","reactionTime":584,"correctAnswer":true},{"block":23,"image":"d7Right7_low.jpg","trial":315,"didAnswer":true,"imgDirection":"right","reactionTime":533,"correctAnswer":true},{"block":23,"image":"d7ori_5_right_9.0_jit13_0.9.jpg","trial":316,"didAnswer":true,"imgDirection":"right","reactionTime":1517,"correctAnswer":true},{"block":23,"image":"d7ori_17_right_9.0_jit13_0.9.jpg","trial":317,"didAnswer":true,"imgDirection":"right","reactionTime":1750,"correctAnswer":true},{"block":23,"image":"d7ori_4_left_9.0_jit13_0.9.jpg","trial":318,"didAnswer":true,"imgDirection":"left","reactionTime":1417,"correctAnswer":false},{"block":23,"image":"d7ori_21_right_9.0_jit13_0.9.jpg","trial":319,"didAnswer":true,"imgDirection":"right","reactionTime":1250,"correctAnswer":true},{"block":23,"image":"d7ori_24_left_9.0_jit13_0.9.jpg","trial":320,"didAnswer":true,"imgDirection":"left","reactionTime":1667,"correctAnswer":true},{"block":23,"image":"d7ori_13_right_9.0_jit13_0.9.jpg","trial":321,"didAnswer":false,"imgDirection":"right","reactionTime":1999,"correctAnswer":null},{"block":23,"image":"d7ori_12_left_9.0_jit13_0.9.jpg","trial":322,"didAnswer":false,"imgDirection":"left","reactionTime":2015,"correctAnswer":null},{"block":24,"image":"d7ori_5_right_9.0_jit15_0.9.jpg","trial":323,"didAnswer":true,"imgDirection":"right","reactionTime":1533,"correctAnswer":true},{"block":24,"image":"d7ori_8_left_9.0_jit15_0.9.jpg","trial":324,"didAnswer":true,"imgDirection":"left","reactionTime":1750,"correctAnswer":false},{"block":24,"image":"d7ori_13_right_9.0_jit15_0.9.jpg","trial":325,"didAnswer":false,"imgDirection":"right","reactionTime":2015,"correctAnswer":null},{"block":24,"image":"d7ori_12_left_9.0_jit15_0.9.jpg","trial":326,"didAnswer":true,"imgDirection":"left","reactionTime":1399,"correctAnswer":true},{"block":24,"image":"d7ori_17_right_9.0_jit15_0.9.jpg","trial":327,"didAnswer":false,"imgDirection":"right","reactionTime":2016,"correctAnswer":null},{"block":24,"image":"d7ori_16_left_9.0_jit15_0.9.jpg","trial":328,"didAnswer":false,"imgDirection":"left","reactionTime":2000,"correctAnswer":null},{"block":24,"image":"d7ori_4_left_9.0_jit15_0.9.jpg","trial":329,"didAnswer":true,"imgDirection":"left","reactionTime":1333,"correctAnswer":false},{"block":24,"image":"d7ori_24_left_9.0_jit15_0.9.jpg","trial":330,"didAnswer":true,"imgDirection":"left","reactionTime":1600,"correctAnswer":true},{"block":24,"image":"d7ori_1_right_9.0_jit15_0.9.jpg","trial":331,"didAnswer":false,"imgDirection":"right","reactionTime":2000,"correctAnswer":null},{"block":24,"image":"d7ori_9_right_9.0_jit15_0.9.jpg","trial":332,"didAnswer":true,"imgDirection":"right","reactionTime":1050,"correctAnswer":true},{"block":24,"image":"d7ori_20_left_9.0_jit15_0.9.jpg","trial":333,"didAnswer":true,"imgDirection":"left","reactionTime":733,"correctAnswer":true},{"block":24,"image":"lf20Left8NoB_low.jpg","trial":334,"didAnswer":true,"imgDirection":"left","reactionTime":634,"correctAnswer":true},{"block":24,"image":"d7ori_21_right_9.0_jit15_0.9.jpg","trial":335,"didAnswer":true,"imgDirection":"right","reactionTime":1984,"correctAnswer":true},{"block":24,"image":"d1Right1_low.jpg","trial":336,"didAnswer":true,"imgDirection":"right","reactionTime":616,"correctAnswer":true}],"browserInfo":{"windowInfo":{"width":1920,"height":1012},"navigatorInfo":{"onLine":true,"vendor":"Google Inc.","appName":"Netscape","plugins":{"0":{"0":{}},"1":{"0":{}},"2":{"0":{},"1":{}},"3":{"0":{}}},"product":"Gecko","storage":{},"language":"en-US","platform":"Win32","languages":["cs","en-US","en","de"],"mimeTypes":{"0":{},"1":{},"2":{},"3":{},"4":{}},"userAgent":"Mozilla/5.0 (Windows NT 10.0; Win64; x64) AppleWebKit/537.36 (KHTML, like Gecko) Chrome/58.0.3029.110 Safari/537.36","vendorSub":"","appVersion":"5.0 (Windows NT 10.0; Win64; x64) AppleWebKit/537.36 (KHTML, like Gecko) Chrome/58.0.3029.110 Safari/537.36","doNotTrack":null,"productSub":"20030107","appCodeName":"Mozilla","credentials":{},"geolocation":{},"permissions":{},"mediaDevices":{},"presentation":{},"cookieEnabled":true,"serviceWorker":{},"maxTouchPoints":10,"hardwareConcurrency":4,"webkitTemporaryStorage":{},"webkitPersistentStorage":{}}}}