{"id":47,"finished":true,"user":"juraj","test":"Jovi4","started":"2017-05-17T10:28:25.301Z","ended":"2017-05-17T10:44:06.147Z","data":[{"block":1,"image":"d0ori_left_9.0_0.9_3.jpg","trial":1,"didAnswer":false,"imgDirection":"left","reactionTime":2005,"correctAnswer":null},{"block":1,"image":"d0ori_left_9.0_0.9_1.jpg","trial":2,"didAnswer":true,"imgDirection":"left","reactionTime":1783,"correctAnswer":false},{"block":1,"image":"d0ori_right_9.0_0.9_4.jpg","trial":3,"didAnswer":true,"imgDirection":"right","reactionTime":1815,"correctAnswer":false},{"block":1,"image":"d0ori_left_9.0_0.9_2.jpg","trial":4,"didAnswer":false,"imgDirection":"left","reactionTime":2002,"correctAnswer":null},{"block":1,"image":"d0ori_left_9.0_0.9_4.jpg","trial":5,"didAnswer":false,"imgDirection":"left","reactionTime":2006,"correctAnswer":null},{"block":1,"image":"d0ori_right_9.0_0.9_0.jpg","trial":6,"didAnswer":true,"imgDirection":"right","reactionTime":1305,"correctAnswer":true},{"block":1,"image":"d0ori_right_9.0_0.9_1.jpg","trial":7,"didAnswer":true,"imgDirection":"right","reactionTime":1759,"correctAnswer":true},{"block":1,"image":"d6Right6_low.jpg","trial":8,"didAnswer":true,"imgDirection":"right","reactionTime":1244,"correctAnswer":true},{"block":1,"image":"d0ori_left_9.0_0.9_5.jpg","trial":9,"didAnswer":true,"imgDirection":"left","reactionTime":1661,"correctAnswer":true},{"block":1,"image":"d0ori_left_9.0_0.9_0.jpg","trial":10,"didAnswer":false,"imgDirection":"left","reactionTime":2004,"correctAnswer":null},{"block":1,"image":"d0ori_right_9.0_0.9_2.jpg","trial":11,"didAnswer":true,"imgDirection":"right","reactionTime":1038,"correctAnswer":true},{"block":1,"image":"d14Right4NoB_low.jpg","trial":12,"didAnswer":true,"imgDirection":"right","reactionTime":797,"correctAnswer":true},{"block":1,"image":"d0ori_right_9.0_0.9_3.jpg","trial":13,"didAnswer":true,"imgDirection":"right","reactionTime":848,"correctAnswer":true},{"block":1,"image":"d0ori_right_9.0_0.9_5.jpg","trial":14,"didAnswer":true,"imgDirection":"right","reactionTime":1612,"correctAnswer":false},{"block":2,"image":"d7ori_1_left_9.0_jit7_0.9.jpg","trial":15,"didAnswer":true,"imgDirection":"left","reactionTime":1191,"correctAnswer":true},{"block":2,"image":"d7ori_20_right_9.0_jit7_0.9.jpg","trial":16,"didAnswer":true,"imgDirection":"right","reactionTime":1100,"correctAnswer":true},{"block":2,"image":"lf18Left6NoB_low.jpg","trial":17,"didAnswer":true,"imgDirection":"left","reactionTime":705,"correctAnswer":true},{"block":2,"image":"d7ori_5_left_9.0_jit7_0.9.jpg","trial":18,"didAnswer":true,"imgDirection":"left","reactionTime":866,"correctAnswer":true},{"block":2,"image":"d7ori_8_right_9.0_jit7_0.9.jpg","trial":19,"didAnswer":true,"imgDirection":"right","reactionTime":1915,"correctAnswer":true},{"block":2,"image":"d7ori_21_left_9.0_jit7_0.9.jpg","trial":20,"didAnswer":true,"imgDirection":"left","reactionTime":1268,"correctAnswer":true},{"block":2,"image":"d7ori_13_left_9.0_jit7_0.9.jpg","trial":21,"didAnswer":true,"imgDirection":"left","reactionTime":1839,"correctAnswer":true},{"block":2,"image":"d7ori_16_right_9.0_jit7_0.9.jpg","trial":22,"didAnswer":false,"imgDirection":"right","reactionTime":2004,"correctAnswer":null},{"block":2,"image":"d7ori_24_right_9.0_jit7_0.9.jpg","trial":23,"didAnswer":true,"imgDirection":"right","reactionTime":1421,"correctAnswer":false},{"block":2,"image":"d7ori_12_right_9.0_jit7_0.9.jpg","trial":24,"didAnswer":false,"imgDirection":"right","reactionTime":2008,"correctAnswer":null},{"block":2,"image":"d7ori_4_right_9.0_jit7_0.9.jpg","trial":25,"didAnswer":true,"imgDirection":"right","reactionTime":1510,"correctAnswer":true},{"block":2,"image":"d7ori_9_left_9.0_jit7_0.9.jpg","trial":26,"didAnswer":true,"imgDirection":"left","reactionTime":1113,"correctAnswer":true},{"block":2,"image":"lf5Left5_low.jpg","trial":27,"didAnswer":true,"imgDirection":"left","reactionTime":772,"correctAnswer":true},{"block":2,"image":"d7ori_17_left_9.0_jit7_0.9.jpg","trial":28,"didAnswer":true,"imgDirection":"left","reactionTime":1660,"correctAnswer":false},{"block":3,"image":"lf2Left2_low.jpg","trial":29,"didAnswer":true,"imgDirection":"left","reactionTime":638,"correctAnswer":true},{"block":3,"image":"left-d7ori_17_left_9.0_jit9_0.9.jpg","trial":30,"didAnswer":true,"imgDirection":"left","reactionTime":932,"correctAnswer":true},{"block":3,"image":"left-d7ori_9_left_9.0_jit9_0.9.jpg","trial":31,"didAnswer":true,"imgDirection":"left","reactionTime":1348,"correctAnswer":true},{"block":3,"image":"right-d7ori_20_right_9.0_jit9_0.9.jpg","trial":32,"didAnswer":true,"imgDirection":"right","reactionTime":1660,"correctAnswer":true},{"block":3,"image":"left-d7ori_13_left_9.0_jit9_0.9.jpg","trial":33,"didAnswer":true,"imgDirection":"left","reactionTime":1704,"correctAnswer":false},{"block":3,"image":"left-d7ori_5_left_9.0_jit9_0.9.jpg","trial":34,"didAnswer":false,"imgDirection":"left","reactionTime":2009,"correctAnswer":null},{"block":3,"image":"right-d7ori_12_right_9.0_jit9_0.9.jpg","trial":35,"didAnswer":true,"imgDirection":"right","reactionTime":1697,"correctAnswer":true},{"block":3,"image":"lf23Left11NoB_low.jpg","trial":36,"didAnswer":true,"imgDirection":"left","reactionTime":633,"correctAnswer":true},{"block":3,"image":"right-d7ori_24_right_9.0_jit9_0.9.jpg","trial":37,"didAnswer":true,"imgDirection":"right","reactionTime":1713,"correctAnswer":true},{"block":3,"image":"right-d7ori_16_right_9.0_jit9_0.9.jpg","trial":38,"didAnswer":true,"imgDirection":"right","reactionTime":1765,"correctAnswer":false},{"block":3,"image":"right-d7ori_4_right_9.0_jit9_0.9.jpg","trial":39,"didAnswer":false,"imgDirection":"right","reactionTime":2006,"correctAnswer":null},{"block":3,"image":"left-d7ori_21_left_9.0_jit9_0.9.jpg","trial":40,"didAnswer":true,"imgDirection":"left","reactionTime":1245,"correctAnswer":true},{"block":3,"image":"right-d7ori_8_right_9.0_jit9_0.9.jpg","trial":41,"didAnswer":true,"imgDirection":"right","reactionTime":1290,"correctAnswer":true},{"block":3,"image":"left-d7ori_1_left_9.0_jit9_0.9.jpg","trial":42,"didAnswer":false,"imgDirection":"left","reactionTime":2003,"correctAnswer":null},{"block":4,"image":"d7ori_14_left_9.0_jit11_0.9.jpg","trial":43,"didAnswer":true,"imgDirection":"left","reactionTime":1628,"correctAnswer":true},{"block":4,"image":"d7ori_19_right_9.0_jit11_0.9.jpg","trial":44,"didAnswer":false,"imgDirection":"right","reactionTime":2002,"correctAnswer":null},{"block":4,"image":"d7ori_22_left_9.0_jit11_0.9.jpg","trial":45,"didAnswer":true,"imgDirection":"left","reactionTime":1601,"correctAnswer":true},{"block":4,"image":"d7ori_2_left_9.0_jit11_0.9.jpg","trial":46,"didAnswer":true,"imgDirection":"left","reactionTime":1215,"correctAnswer":true},{"block":4,"image":"d7ori_18_left_9.0_jit11_0.9.jpg","trial":47,"didAnswer":true,"imgDirection":"left","reactionTime":1526,"correctAnswer":false},{"block":4,"image":"d7ori_23_right_9.0_jit11_0.9.jpg","trial":48,"didAnswer":true,"imgDirection":"right","reactionTime":1578,"correctAnswer":true},{"block":4,"image":"d7ori_10_left_9.0_jit11_0.9.jpg","trial":49,"didAnswer":false,"imgDirection":"left","reactionTime":2000,"correctAnswer":null},{"block":4,"image":"d7ori_11_right_9.0_jit11_0.9.jpg","trial":50,"didAnswer":true,"imgDirection":"right","reactionTime":1179,"correctAnswer":true},{"block":4,"image":"d7ori_6_left_9.0_jit11_0.9.jpg","trial":51,"didAnswer":true,"imgDirection":"left","reactionTime":1198,"correctAnswer":false},{"block":4,"image":"lf10Left10_low.jpg","trial":52,"didAnswer":true,"imgDirection":"left","reactionTime":730,"correctAnswer":true},{"block":4,"image":"d10Right0NoB_low.jpg","trial":53,"didAnswer":true,"imgDirection":"right","reactionTime":582,"correctAnswer":true},{"block":4,"image":"d7ori_3_right_9.0_jit11_0.9.jpg","trial":54,"didAnswer":false,"imgDirection":"right","reactionTime":2008,"correctAnswer":null},{"block":4,"image":"d7ori_7_right_9.0_jit11_0.9.jpg","trial":55,"didAnswer":true,"imgDirection":"right","reactionTime":1977,"correctAnswer":true},{"block":4,"image":"d7ori_15_right_9.0_jit11_0.9.jpg","trial":56,"didAnswer":false,"imgDirection":"right","reactionTime":2002,"correctAnswer":null},{"block":5,"image":"lf13Left1NoB_low.jpg","trial":57,"didAnswer":true,"imgDirection":"left","reactionTime":619,"correctAnswer":true},{"block":5,"image":"d7ori_4_right_9.0_jit13_0.9.jpg","trial":58,"didAnswer":true,"imgDirection":"right","reactionTime":1379,"correctAnswer":false},{"block":5,"image":"d7ori_24_right_9.0_jit13_0.9.jpg","trial":59,"didAnswer":true,"imgDirection":"right","reactionTime":1781,"correctAnswer":true},{"block":5,"image":"d7ori_20_right_9.0_jit13_0.9.jpg","trial":60,"didAnswer":true,"imgDirection":"right","reactionTime":1678,"correctAnswer":true},{"block":5,"image":"d7ori_5_left_9.0_jit13_0.9.jpg","trial":61,"didAnswer":true,"imgDirection":"left","reactionTime":1678,"correctAnswer":false},{"block":5,"image":"d7ori_13_left_9.0_jit13_0.9.jpg","trial":62,"didAnswer":true,"imgDirection":"left","reactionTime":1368,"correctAnswer":true},{"block":5,"image":"d7ori_1_left_9.0_jit13_0.9.jpg","trial":63,"didAnswer":true,"imgDirection":"left","reactionTime":1628,"correctAnswer":false},{"block":5,"image":"d7ori_16_right_9.0_jit13_0.9.jpg","trial":64,"didAnswer":true,"imgDirection":"right","reactionTime":1914,"correctAnswer":true},{"block":5,"image":"d7ori_9_left_9.0_jit13_0.9.jpg","trial":65,"didAnswer":false,"imgDirection":"left","reactionTime":2002,"correctAnswer":null},{"block":5,"image":"d7ori_17_left_9.0_jit13_0.9.jpg","trial":66,"didAnswer":true,"imgDirection":"left","reactionTime":1771,"correctAnswer":false},{"block":5,"image":"d7ori_8_right_9.0_jit13_0.9.jpg","trial":67,"didAnswer":false,"imgDirection":"right","reactionTime":2000,"correctAnswer":null},{"block":5,"image":"d7ori_21_left_9.0_jit13_0.9.jpg","trial":68,"didAnswer":true,"imgDirection":"left","reactionTime":1688,"correctAnswer":false},{"block":5,"image":"d4Right4_low.jpg","trial":69,"didAnswer":true,"imgDirection":"right","reactionTime":650,"correctAnswer":true},{"block":5,"image":"d7ori_12_right_9.0_jit13_0.9.jpg","trial":70,"didAnswer":true,"imgDirection":"right","reactionTime":1841,"correctAnswer":false},{"block":6,"image":"d7ori_13_left_9.0_jit15_0.9.jpg","trial":71,"didAnswer":true,"imgDirection":"left","reactionTime":1085,"correctAnswer":true},{"block":6,"image":"d7ori_1_left_9.0_jit15_0.9.jpg","trial":72,"didAnswer":false,"imgDirection":"left","reactionTime":2000,"correctAnswer":null},{"block":6,"image":"d7ori_24_right_9.0_jit15_0.9.jpg","trial":73,"didAnswer":true,"imgDirection":"right","reactionTime":1144,"correctAnswer":false},{"block":6,"image":"d7ori_9_left_9.0_jit15_0.9.jpg","trial":74,"didAnswer":true,"imgDirection":"left","reactionTime":1437,"correctAnswer":false},{"block":6,"image":"d7ori_12_right_9.0_jit15_0.9.jpg","trial":75,"didAnswer":true,"imgDirection":"right","reactionTime":1603,"correctAnswer":false},{"block":6,"image":"lf6Left6_low.jpg","trial":76,"didAnswer":true,"imgDirection":"left","reactionTime":617,"correctAnswer":true},{"block":6,"image":"d7ori_8_right_9.0_jit15_0.9.jpg","trial":77,"didAnswer":true,"imgDirection":"right","reactionTime":1437,"correctAnswer":true},{"block":6,"image":"d15Right5NoB_low.jpg","trial":78,"didAnswer":true,"imgDirection":"right","reactionTime":551,"correctAnswer":true},{"block":6,"image":"d7ori_4_right_9.0_jit15_0.9.jpg","trial":79,"didAnswer":true,"imgDirection":"right","reactionTime":1760,"correctAnswer":true},{"block":6,"image":"d7ori_5_left_9.0_jit15_0.9.jpg","trial":80,"didAnswer":true,"imgDirection":"left","reactionTime":1937,"correctAnswer":true},{"block":6,"image":"d7ori_16_right_9.0_jit15_0.9.jpg","trial":81,"didAnswer":false,"imgDirection":"right","reactionTime":2000,"correctAnswer":null},{"block":6,"image":"d7ori_21_left_9.0_jit15_0.9.jpg","trial":82,"didAnswer":true,"imgDirection":"left","reactionTime":1746,"correctAnswer":false},{"block":6,"image":"d7ori_17_left_9.0_jit15_0.9.jpg","trial":83,"didAnswer":false,"imgDirection":"left","reactionTime":2001,"correctAnswer":null},{"block":6,"image":"d7ori_20_right_9.0_jit15_0.9.jpg","trial":84,"didAnswer":false,"imgDirection":"right","reactionTime":2014,"correctAnswer":null},{"block":7,"image":"d0ori_right_9.0_0.9_10.jpg","trial":85,"didAnswer":false,"imgDirection":"right","reactionTime":2002,"correctAnswer":null},{"block":7,"image":"d0ori_right_9.0_0.9_8.jpg","trial":86,"didAnswer":true,"imgDirection":"right","reactionTime":1459,"correctAnswer":true},{"block":7,"image":"d11Right1NoB_low.jpg","trial":87,"didAnswer":true,"imgDirection":"right","reactionTime":978,"correctAnswer":true},{"block":7,"image":"d0ori_right_9.0_0.9_6.jpg","trial":88,"didAnswer":true,"imgDirection":"right","reactionTime":1122,"correctAnswer":true},{"block":7,"image":"d0ori_left_9.0_0.9_6.jpg","trial":89,"didAnswer":true,"imgDirection":"left","reactionTime":1097,"correctAnswer":true},{"block":7,"image":"d0ori_left_9.0_0.9_7.jpg","trial":90,"didAnswer":true,"imgDirection":"left","reactionTime":1340,"correctAnswer":true},{"block":7,"image":"d11Right11_low.jpg","trial":91,"didAnswer":true,"imgDirection":"right","reactionTime":611,"correctAnswer":true},{"block":7,"image":"d0ori_right_9.0_0.9_9.jpg","trial":92,"didAnswer":true,"imgDirection":"right","reactionTime":1075,"correctAnswer":true},{"block":7,"image":"d0ori_left_9.0_0.9_9.jpg","trial":93,"didAnswer":true,"imgDirection":"left","reactionTime":856,"correctAnswer":true},{"block":7,"image":"d0ori_left_9.0_0.9_8.jpg","trial":94,"didAnswer":true,"imgDirection":"left","reactionTime":832,"correctAnswer":true},{"block":7,"image":"d0ori_left_9.0_0.9_11.jpg","trial":95,"didAnswer":true,"imgDirection":"left","reactionTime":840,"correctAnswer":true},{"block":7,"image":"d0ori_right_9.0_0.9_11.jpg","trial":96,"didAnswer":true,"imgDirection":"right","reactionTime":951,"correctAnswer":true},{"block":7,"image":"d0ori_right_9.0_0.9_7.jpg","trial":97,"didAnswer":true,"imgDirection":"right","reactionTime":876,"correctAnswer":true},{"block":7,"image":"d0ori_left_9.0_0.9_10.jpg","trial":98,"didAnswer":true,"imgDirection":"left","reactionTime":1958,"correctAnswer":true},{"block":8,"image":"d7ori_14_left_9.0_jit7_0.9.jpg","trial":99,"didAnswer":true,"imgDirection":"left","reactionTime":1091,"correctAnswer":true},{"block":8,"image":"d7ori_19_right_9.0_jit7_0.9.jpg","trial":100,"didAnswer":true,"imgDirection":"right","reactionTime":1510,"correctAnswer":true},{"block":8,"image":"d7ori_23_right_9.0_jit7_0.9.jpg","trial":101,"didAnswer":true,"imgDirection":"right","reactionTime":1912,"correctAnswer":false},{"block":8,"image":"d7ori_18_left_9.0_jit7_0.9.jpg","trial":102,"didAnswer":true,"imgDirection":"left","reactionTime":1598,"correctAnswer":false},{"block":8,"image":"d7ori_6_left_9.0_jit7_0.9.jpg","trial":103,"didAnswer":true,"imgDirection":"left","reactionTime":1860,"correctAnswer":false},{"block":8,"image":"lf16Left4NoB_low.jpg","trial":104,"didAnswer":true,"imgDirection":"left","reactionTime":637,"correctAnswer":true},{"block":8,"image":"d7ori_11_right_9.0_jit7_0.9.jpg","trial":105,"didAnswer":true,"imgDirection":"right","reactionTime":1364,"correctAnswer":true},{"block":8,"image":"d7ori_15_right_9.0_jit7_0.9.jpg","trial":106,"didAnswer":true,"imgDirection":"right","reactionTime":1695,"correctAnswer":false},{"block":8,"image":"d7ori_7_right_9.0_jit7_0.9.jpg","trial":107,"didAnswer":false,"imgDirection":"right","reactionTime":2002,"correctAnswer":null},{"block":8,"image":"d7ori_3_right_9.0_jit7_0.9.jpg","trial":108,"didAnswer":true,"imgDirection":"right","reactionTime":1703,"correctAnswer":false},{"block":8,"image":"d7ori_10_left_9.0_jit7_0.9.jpg","trial":109,"didAnswer":true,"imgDirection":"left","reactionTime":1822,"correctAnswer":true},{"block":8,"image":"d2Right2_low.jpg","trial":110,"didAnswer":true,"imgDirection":"right","reactionTime":568,"correctAnswer":true},{"block":8,"image":"d7ori_22_left_9.0_jit7_0.9.jpg","trial":111,"didAnswer":true,"imgDirection":"left","reactionTime":1982,"correctAnswer":true},{"block":8,"image":"d7ori_2_left_9.0_jit7_0.9.jpg","trial":112,"didAnswer":true,"imgDirection":"left","reactionTime":1443,"correctAnswer":false},{"block":9,"image":"left-d7ori_14_left_9.0_jit9_0.9.jpg","trial":113,"didAnswer":true,"imgDirection":"left","reactionTime":1120,"correctAnswer":true},{"block":9,"image":"left-d7ori_6_left_9.0_jit9_0.9.jpg","trial":114,"didAnswer":true,"imgDirection":"left","reactionTime":1495,"correctAnswer":true},{"block":9,"image":"left-d7ori_2_left_9.0_jit9_0.9.jpg","trial":115,"didAnswer":true,"imgDirection":"left","reactionTime":1455,"correctAnswer":true},{"block":9,"image":"left-d7ori_10_left_9.0_jit9_0.9.jpg","trial":116,"didAnswer":false,"imgDirection":"left","reactionTime":2000,"correctAnswer":null},{"block":9,"image":"d19Right9NoB_low.jpg","trial":117,"didAnswer":true,"imgDirection":"right","reactionTime":543,"correctAnswer":true},{"block":9,"image":"right-d7ori_15_right_9.0_jit9_0.9.jpg","trial":118,"didAnswer":true,"imgDirection":"right","reactionTime":1063,"correctAnswer":false},{"block":9,"image":"right-d7ori_11_right_9.0_jit9_0.9.jpg","trial":119,"didAnswer":true,"imgDirection":"right","reactionTime":1203,"correctAnswer":true},{"block":9,"image":"right-d7ori_3_right_9.0_jit9_0.9.jpg","trial":120,"didAnswer":true,"imgDirection":"right","reactionTime":1758,"correctAnswer":false},{"block":9,"image":"left-d7ori_22_left_9.0_jit9_0.9.jpg","trial":121,"didAnswer":true,"imgDirection":"left","reactionTime":1532,"correctAnswer":true},{"block":9,"image":"left-d7ori_18_left_9.0_jit9_0.9.jpg","trial":122,"didAnswer":true,"imgDirection":"left","reactionTime":1155,"correctAnswer":true},{"block":9,"image":"right-d7ori_19_right_9.0_jit9_0.9.jpg","trial":123,"didAnswer":false,"imgDirection":"right","reactionTime":2005,"correctAnswer":null},{"block":9,"image":"right-d7ori_7_right_9.0_jit9_0.9.jpg","trial":124,"didAnswer":true,"imgDirection":"right","reactionTime":1678,"correctAnswer":false},{"block":9,"image":"right-d7ori_23_right_9.0_jit9_0.9.jpg","trial":125,"didAnswer":true,"imgDirection":"right","reactionTime":1677,"correctAnswer":false},{"block":9,"image":"lf9Left9_low.jpg","trial":126,"didAnswer":true,"imgDirection":"left","reactionTime":969,"correctAnswer":true},{"block":10,"image":"d7ori_20_right_9.0_jit11_0.9.jpg","trial":127,"didAnswer":true,"imgDirection":"right","reactionTime":1509,"correctAnswer":false},{"block":10,"image":"d7ori_13_left_9.0_jit11_0.9.jpg","trial":128,"didAnswer":true,"imgDirection":"left","reactionTime":1500,"correctAnswer":true},{"block":10,"image":"d7ori_1_left_9.0_jit11_0.9.jpg","trial":129,"didAnswer":true,"imgDirection":"left","reactionTime":1360,"correctAnswer":false},{"block":10,"image":"lf7Left7_low.jpg","trial":130,"didAnswer":true,"imgDirection":"left","reactionTime":633,"correctAnswer":true},{"block":10,"image":"d7ori_5_left_9.0_jit11_0.9.jpg","trial":131,"didAnswer":true,"imgDirection":"left","reactionTime":1517,"correctAnswer":false},{"block":10,"image":"d7ori_17_left_9.0_jit11_0.9.jpg","trial":132,"didAnswer":true,"imgDirection":"left","reactionTime":1380,"correctAnswer":true},{"block":10,"image":"d12Right2NoB_low.jpg","trial":133,"didAnswer":true,"imgDirection":"right","reactionTime":582,"correctAnswer":true},{"block":10,"image":"d7ori_8_right_9.0_jit11_0.9.jpg","trial":134,"didAnswer":true,"imgDirection":"right","reactionTime":892,"correctAnswer":true},{"block":10,"image":"d7ori_12_right_9.0_jit11_0.9.jpg","trial":135,"didAnswer":true,"imgDirection":"right","reactionTime":1740,"correctAnswer":false},{"block":10,"image":"d7ori_4_right_9.0_jit11_0.9.jpg","trial":136,"didAnswer":true,"imgDirection":"right","reactionTime":1796,"correctAnswer":true},{"block":10,"image":"d7ori_24_right_9.0_jit11_0.9.jpg","trial":137,"didAnswer":true,"imgDirection":"right","reactionTime":1816,"correctAnswer":true},{"block":10,"image":"d7ori_16_right_9.0_jit11_0.9.jpg","trial":138,"didAnswer":true,"imgDirection":"right","reactionTime":1686,"correctAnswer":false},{"block":10,"image":"d7ori_21_left_9.0_jit11_0.9.jpg","trial":139,"didAnswer":true,"imgDirection":"left","reactionTime":1700,"correctAnswer":false},{"block":10,"image":"d7ori_9_left_9.0_jit11_0.9.jpg","trial":140,"didAnswer":false,"imgDirection":"left","reactionTime":2002,"correctAnswer":null},{"block":11,"image":"d7ori_6_left_9.0_jit13_0.9.jpg","trial":141,"didAnswer":true,"imgDirection":"left","reactionTime":1607,"correctAnswer":true},{"block":11,"image":"d7ori_23_right_9.0_jit13_0.9.jpg","trial":142,"didAnswer":true,"imgDirection":"right","reactionTime":1872,"correctAnswer":false},{"block":11,"image":"d7ori_3_right_9.0_jit13_0.9.jpg","trial":143,"didAnswer":true,"imgDirection":"right","reactionTime":1681,"correctAnswer":false},{"block":11,"image":"d3Right3_low.jpg","trial":144,"didAnswer":true,"imgDirection":"right","reactionTime":528,"correctAnswer":true},{"block":11,"image":"d7ori_19_right_9.0_jit13_0.9.jpg","trial":145,"didAnswer":true,"imgDirection":"right","reactionTime":1866,"correctAnswer":false},{"block":11,"image":"lf15Left3NoB_low.jpg","trial":146,"didAnswer":true,"imgDirection":"left","reactionTime":604,"correctAnswer":true},{"block":11,"image":"d7ori_15_right_9.0_jit13_0.9.jpg","trial":147,"didAnswer":false,"imgDirection":"right","reactionTime":2000,"correctAnswer":null},{"block":11,"image":"d7ori_10_left_9.0_jit13_0.9.jpg","trial":148,"didAnswer":false,"imgDirection":"left","reactionTime":2000,"correctAnswer":null},{"block":11,"image":"d7ori_7_right_9.0_jit13_0.9.jpg","trial":149,"didAnswer":false,"imgDirection":"right","reactionTime":2009,"correctAnswer":null},{"block":11,"image":"d7ori_11_right_9.0_jit13_0.9.jpg","trial":150,"didAnswer":true,"imgDirection":"right","reactionTime":1908,"correctAnswer":true},{"block":11,"image":"d7ori_18_left_9.0_jit13_0.9.jpg","trial":151,"didAnswer":false,"imgDirection":"left","reactionTime":2000,"correctAnswer":null},{"block":11,"image":"d7ori_22_left_9.0_jit13_0.9.jpg","trial":152,"didAnswer":true,"imgDirection":"left","reactionTime":1500,"correctAnswer":false},{"block":11,"image":"d7ori_2_left_9.0_jit13_0.9.jpg","trial":153,"didAnswer":true,"imgDirection":"left","reactionTime":1476,"correctAnswer":true},{"block":11,"image":"d7ori_14_left_9.0_jit13_0.9.jpg","trial":154,"didAnswer":true,"imgDirection":"left","reactionTime":1438,"correctAnswer":false},{"block":12,"image":"d7ori_23_right_9.0_jit15_0.9.jpg","trial":155,"didAnswer":true,"imgDirection":"right","reactionTime":1530,"correctAnswer":false},{"block":12,"image":"lf21Left9NoB_low.jpg","trial":156,"didAnswer":true,"imgDirection":"left","reactionTime":867,"correctAnswer":true},{"block":12,"image":"d7ori_11_right_9.0_jit15_0.9.jpg","trial":157,"didAnswer":true,"imgDirection":"right","reactionTime":1630,"correctAnswer":true},{"block":12,"image":"d7ori_10_left_9.0_jit15_0.9.jpg","trial":158,"didAnswer":true,"imgDirection":"left","reactionTime":1894,"correctAnswer":true},{"block":12,"image":"d7ori_19_right_9.0_jit15_0.9.jpg","trial":159,"didAnswer":false,"imgDirection":"right","reactionTime":2001,"correctAnswer":null},{"block":12,"image":"d7ori_22_left_9.0_jit15_0.9.jpg","trial":160,"didAnswer":true,"imgDirection":"left","reactionTime":1912,"correctAnswer":true},{"block":12,"image":"d7ori_7_right_9.0_jit15_0.9.jpg","trial":161,"didAnswer":false,"imgDirection":"right","reactionTime":2000,"correctAnswer":null},{"block":12,"image":"d7ori_14_left_9.0_jit15_0.9.jpg","trial":162,"didAnswer":false,"imgDirection":"left","reactionTime":2008,"correctAnswer":null},{"block":12,"image":"d7ori_2_left_9.0_jit15_0.9.jpg","trial":163,"didAnswer":true,"imgDirection":"left","reactionTime":1788,"correctAnswer":false},{"block":12,"image":"d7ori_18_left_9.0_jit15_0.9.jpg","trial":164,"didAnswer":false,"imgDirection":"left","reactionTime":2002,"correctAnswer":null},{"block":12,"image":"d7ori_3_right_9.0_jit15_0.9.jpg","trial":165,"didAnswer":false,"imgDirection":"right","reactionTime":2005,"correctAnswer":null},{"block":12,"image":"lf4Left4_low.jpg","trial":166,"didAnswer":true,"imgDirection":"left","reactionTime":792,"correctAnswer":true},{"block":12,"image":"d7ori_15_right_9.0_jit15_0.9.jpg","trial":167,"didAnswer":true,"imgDirection":"right","reactionTime":1937,"correctAnswer":false},{"block":12,"image":"d7ori_6_left_9.0_jit15_0.9.jpg","trial":168,"didAnswer":true,"imgDirection":"left","reactionTime":1745,"correctAnswer":true},{"block":13,"image":"d0ori_right_9.0_0.9_15.jpg","trial":169,"didAnswer":true,"imgDirection":"right","reactionTime":1402,"correctAnswer":true},{"block":13,"image":"d0ori_right_9.0_0.9_13.jpg","trial":170,"didAnswer":false,"imgDirection":"right","reactionTime":2008,"correctAnswer":null},{"block":13,"image":"d0ori_left_9.0_0.9_17.jpg","trial":171,"didAnswer":true,"imgDirection":"left","reactionTime":1419,"correctAnswer":true},{"block":13,"image":"d17Right7NoB_low.jpg","trial":172,"didAnswer":true,"imgDirection":"right","reactionTime":872,"correctAnswer":true},{"block":13,"image":"d0Right0_low.jpg","trial":173,"didAnswer":true,"imgDirection":"right","reactionTime":638,"correctAnswer":true},{"block":13,"image":"d0ori_right_9.0_0.9_17.jpg","trial":174,"didAnswer":true,"imgDirection":"right","reactionTime":1794,"correctAnswer":true},{"block":13,"image":"d0ori_left_9.0_0.9_15.jpg","trial":175,"didAnswer":false,"imgDirection":"left","reactionTime":2004,"correctAnswer":null},{"block":13,"image":"d0ori_left_9.0_0.9_16.jpg","trial":176,"didAnswer":true,"imgDirection":"left","reactionTime":1017,"correctAnswer":true},{"block":13,"image":"d0ori_left_9.0_0.9_14.jpg","trial":177,"didAnswer":true,"imgDirection":"left","reactionTime":977,"correctAnswer":true},{"block":13,"image":"d0ori_left_9.0_0.9_13.jpg","trial":178,"didAnswer":true,"imgDirection":"left","reactionTime":1851,"correctAnswer":true},{"block":13,"image":"d0ori_right_9.0_0.9_16.jpg","trial":179,"didAnswer":true,"imgDirection":"right","reactionTime":1355,"correctAnswer":true},{"block":13,"image":"d0ori_left_9.0_0.9_12.jpg","trial":180,"didAnswer":true,"imgDirection":"left","reactionTime":1622,"correctAnswer":true},{"block":13,"image":"d0ori_right_9.0_0.9_14.jpg","trial":181,"didAnswer":true,"imgDirection":"right","reactionTime":1490,"correctAnswer":false},{"block":13,"image":"d0ori_right_9.0_0.9_12.jpg","trial":182,"didAnswer":true,"imgDirection":"right","reactionTime":1528,"correctAnswer":true},{"block":14,"image":"d7ori_3_left_9.0_jit7_0.9.jpg","trial":183,"didAnswer":true,"imgDirection":"left","reactionTime":1191,"correctAnswer":true},{"block":14,"image":"d10Right10_low.jpg","trial":184,"didAnswer":true,"imgDirection":"right","reactionTime":562,"correctAnswer":true},{"block":14,"image":"d7ori_22_right_9.0_jit7_0.9.jpg","trial":185,"didAnswer":true,"imgDirection":"right","reactionTime":1471,"correctAnswer":false},{"block":14,"image":"d7ori_7_left_9.0_jit7_0.9.jpg","trial":186,"didAnswer":true,"imgDirection":"left","reactionTime":1340,"correctAnswer":true},{"block":14,"image":"d7ori_10_right_9.0_jit7_0.9.jpg","trial":187,"didAnswer":true,"imgDirection":"right","reactionTime":1370,"correctAnswer":true},{"block":14,"image":"d7ori_19_left_9.0_jit7_0.9.jpg","trial":188,"didAnswer":true,"imgDirection":"left","reactionTime":1901,"correctAnswer":false},{"block":14,"image":"d7ori_2_right_9.0_jit7_0.9.jpg","trial":189,"didAnswer":true,"imgDirection":"right","reactionTime":1688,"correctAnswer":false},{"block":14,"image":"d7ori_15_left_9.0_jit7_0.9.jpg","trial":190,"didAnswer":false,"imgDirection":"left","reactionTime":2008,"correctAnswer":null},{"block":14,"image":"d23Right11NoB_low.jpg","trial":191,"didAnswer":true,"imgDirection":"right","reactionTime":663,"correctAnswer":true},{"block":14,"image":"d7ori_23_left_9.0_jit7_0.9.jpg","trial":192,"didAnswer":true,"imgDirection":"left","reactionTime":1415,"correctAnswer":true},{"block":14,"image":"d7ori_11_left_9.0_jit7_0.9.jpg","trial":193,"didAnswer":true,"imgDirection":"left","reactionTime":1021,"correctAnswer":true},{"block":14,"image":"d7ori_18_right_9.0_jit7_0.9.jpg","trial":194,"didAnswer":true,"imgDirection":"right","reactionTime":922,"correctAnswer":true},{"block":14,"image":"d7ori_14_right_9.0_jit7_0.9.jpg","trial":195,"didAnswer":true,"imgDirection":"right","reactionTime":1140,"correctAnswer":true},{"block":14,"image":"d7ori_6_right_9.0_jit7_0.9.jpg","trial":196,"didAnswer":true,"imgDirection":"right","reactionTime":1528,"correctAnswer":false},{"block":15,"image":"right-d7ori_6_right_9.0_jit9_0.9.jpg","trial":197,"didAnswer":true,"imgDirection":"right","reactionTime":1492,"correctAnswer":true},{"block":15,"image":"lf11Left11_low.jpg","trial":198,"didAnswer":true,"imgDirection":"left","reactionTime":598,"correctAnswer":true},{"block":15,"image":"left-d7ori_19_left_9.0_jit9_0.9.jpg","trial":199,"didAnswer":true,"imgDirection":"left","reactionTime":1216,"correctAnswer":true},{"block":15,"image":"right-d7ori_22_right_9.0_jit9_0.9.jpg","trial":200,"didAnswer":true,"imgDirection":"right","reactionTime":1278,"correctAnswer":true},{"block":15,"image":"lf22Left10NoB_low.jpg","trial":201,"didAnswer":true,"imgDirection":"left","reactionTime":577,"correctAnswer":true},{"block":15,"image":"left-d7ori_23_left_9.0_jit9_0.9.jpg","trial":202,"didAnswer":true,"imgDirection":"left","reactionTime":1069,"correctAnswer":false},{"block":15,"image":"left-d7ori_7_left_9.0_jit9_0.9.jpg","trial":203,"didAnswer":true,"imgDirection":"left","reactionTime":1526,"correctAnswer":true},{"block":15,"image":"right-d7ori_2_right_9.0_jit9_0.9.jpg","trial":204,"didAnswer":true,"imgDirection":"right","reactionTime":763,"correctAnswer":false},{"block":15,"image":"right-d7ori_14_right_9.0_jit9_0.9.jpg","trial":205,"didAnswer":true,"imgDirection":"right","reactionTime":978,"correctAnswer":true},{"block":15,"image":"left-d7ori_15_left_9.0_jit9_0.9.jpg","trial":206,"didAnswer":true,"imgDirection":"left","reactionTime":1088,"correctAnswer":true},{"block":15,"image":"right-d7ori_10_right_9.0_jit9_0.9.jpg","trial":207,"didAnswer":true,"imgDirection":"right","reactionTime":884,"correctAnswer":false},{"block":15,"image":"left-d7ori_11_left_9.0_jit9_0.9.jpg","trial":208,"didAnswer":true,"imgDirection":"left","reactionTime":1455,"correctAnswer":true},{"block":15,"image":"left-d7ori_3_left_9.0_jit9_0.9.jpg","trial":209,"didAnswer":true,"imgDirection":"left","reactionTime":570,"correctAnswer":true},{"block":15,"image":"right-d7ori_18_right_9.0_jit9_0.9.jpg","trial":210,"didAnswer":true,"imgDirection":"right","reactionTime":980,"correctAnswer":false},{"block":16,"image":"lf3Left3_low.jpg","trial":211,"didAnswer":true,"imgDirection":"left","reactionTime":657,"correctAnswer":true},{"block":16,"image":"d7ori_4_left_9.0_jit11_0.9.jpg","trial":212,"didAnswer":true,"imgDirection":"left","reactionTime":1363,"correctAnswer":true},{"block":16,"image":"d7ori_1_right_9.0_jit11_0.9.jpg","trial":213,"didAnswer":true,"imgDirection":"right","reactionTime":1471,"correctAnswer":true},{"block":16,"image":"d7ori_12_left_9.0_jit11_0.9.jpg","trial":214,"didAnswer":true,"imgDirection":"left","reactionTime":935,"correctAnswer":true},{"block":16,"image":"d7ori_21_right_9.0_jit11_0.9.jpg","trial":215,"didAnswer":true,"imgDirection":"right","reactionTime":1400,"correctAnswer":true},{"block":16,"image":"lf12Left0NoB_low.jpg","trial":216,"didAnswer":true,"imgDirection":"left","reactionTime":862,"correctAnswer":true},{"block":16,"image":"d7ori_8_left_9.0_jit11_0.9.jpg","trial":217,"didAnswer":true,"imgDirection":"left","reactionTime":1324,"correctAnswer":true},{"block":16,"image":"d7ori_13_right_9.0_jit11_0.9.jpg","trial":218,"didAnswer":true,"imgDirection":"right","reactionTime":1274,"correctAnswer":true},{"block":16,"image":"d7ori_17_right_9.0_jit11_0.9.jpg","trial":219,"didAnswer":true,"imgDirection":"right","reactionTime":1408,"correctAnswer":false},{"block":16,"image":"d7ori_20_left_9.0_jit11_0.9.jpg","trial":220,"didAnswer":true,"imgDirection":"left","reactionTime":1162,"correctAnswer":true},{"block":16,"image":"d7ori_9_right_9.0_jit11_0.9.jpg","trial":221,"didAnswer":true,"imgDirection":"right","reactionTime":1339,"correctAnswer":false},{"block":16,"image":"d7ori_16_left_9.0_jit11_0.9.jpg","trial":222,"didAnswer":true,"imgDirection":"left","reactionTime":1228,"correctAnswer":true},{"block":16,"image":"d7ori_24_left_9.0_jit11_0.9.jpg","trial":223,"didAnswer":true,"imgDirection":"left","reactionTime":1297,"correctAnswer":false},{"block":16,"image":"d7ori_5_right_9.0_jit11_0.9.jpg","trial":224,"didAnswer":true,"imgDirection":"right","reactionTime":1541,"correctAnswer":true},{"block":17,"image":"d7ori_22_right_9.0_jit13_0.9.jpg","trial":225,"didAnswer":true,"imgDirection":"right","reactionTime":1497,"correctAnswer":false},{"block":17,"image":"d7ori_11_left_9.0_jit13_0.9.jpg","trial":226,"didAnswer":true,"imgDirection":"left","reactionTime":1242,"correctAnswer":true},{"block":17,"image":"d7ori_2_right_9.0_jit13_0.9.jpg","trial":227,"didAnswer":true,"imgDirection":"right","reactionTime":1650,"correctAnswer":false},{"block":17,"image":"d5Right5_low.jpg","trial":228,"didAnswer":true,"imgDirection":"right","reactionTime":612,"correctAnswer":true},{"block":17,"image":"d7ori_18_right_9.0_jit13_0.9.jpg","trial":229,"didAnswer":true,"imgDirection":"right","reactionTime":1737,"correctAnswer":true},{"block":17,"image":"d7ori_14_right_9.0_jit13_0.9.jpg","trial":230,"didAnswer":true,"imgDirection":"right","reactionTime":1423,"correctAnswer":true},{"block":17,"image":"d7ori_23_left_9.0_jit13_0.9.jpg","trial":231,"didAnswer":false,"imgDirection":"left","reactionTime":2004,"correctAnswer":null},{"block":17,"image":"d7ori_6_right_9.0_jit13_0.9.jpg","trial":232,"didAnswer":true,"imgDirection":"right","reactionTime":1490,"correctAnswer":true},{"block":17,"image":"d7ori_19_left_9.0_jit13_0.9.jpg","trial":233,"didAnswer":true,"imgDirection":"left","reactionTime":1281,"correctAnswer":false},{"block":17,"image":"d7ori_3_left_9.0_jit13_0.9.jpg","trial":234,"didAnswer":true,"imgDirection":"left","reactionTime":1160,"correctAnswer":true},{"block":17,"image":"d7ori_15_left_9.0_jit13_0.9.jpg","trial":235,"didAnswer":true,"imgDirection":"left","reactionTime":1143,"correctAnswer":true},{"block":17,"image":"d7ori_10_right_9.0_jit13_0.9.jpg","trial":236,"didAnswer":true,"imgDirection":"right","reactionTime":1617,"correctAnswer":false},{"block":17,"image":"d7ori_7_left_9.0_jit13_0.9.jpg","trial":237,"didAnswer":true,"imgDirection":"left","reactionTime":1162,"correctAnswer":false},{"block":17,"image":"d16Right6NoB_low.jpg","trial":238,"didAnswer":true,"imgDirection":"right","reactionTime":623,"correctAnswer":true},{"block":18,"image":"d7ori_22_right_9.0_jit15_0.9.jpg","trial":239,"didAnswer":true,"imgDirection":"right","reactionTime":1626,"correctAnswer":true},{"block":18,"image":"d7ori_11_left_9.0_jit15_0.9.jpg","trial":240,"didAnswer":true,"imgDirection":"left","reactionTime":1507,"correctAnswer":true},{"block":18,"image":"d7ori_23_left_9.0_jit15_0.9.jpg","trial":241,"didAnswer":true,"imgDirection":"left","reactionTime":1876,"correctAnswer":false},{"block":18,"image":"d7ori_18_right_9.0_jit15_0.9.jpg","trial":242,"didAnswer":true,"imgDirection":"right","reactionTime":796,"correctAnswer":false},{"block":18,"image":"d7ori_6_right_9.0_jit15_0.9.jpg","trial":243,"didAnswer":true,"imgDirection":"right","reactionTime":1328,"correctAnswer":false},{"block":18,"image":"d7ori_10_right_9.0_jit15_0.9.jpg","trial":244,"didAnswer":true,"imgDirection":"right","reactionTime":1261,"correctAnswer":true},{"block":18,"image":"d7ori_19_left_9.0_jit15_0.9.jpg","trial":245,"didAnswer":true,"imgDirection":"left","reactionTime":1645,"correctAnswer":true},{"block":18,"image":"d7ori_2_right_9.0_jit15_0.9.jpg","trial":246,"didAnswer":true,"imgDirection":"right","reactionTime":1417,"correctAnswer":false},{"block":18,"image":"d7ori_3_left_9.0_jit15_0.9.jpg","trial":247,"didAnswer":true,"imgDirection":"left","reactionTime":1202,"correctAnswer":false},{"block":18,"image":"d7ori_14_right_9.0_jit15_0.9.jpg","trial":248,"didAnswer":true,"imgDirection":"right","reactionTime":1538,"correctAnswer":false},{"block":18,"image":"d7ori_15_left_9.0_jit15_0.9.jpg","trial":249,"didAnswer":true,"imgDirection":"left","reactionTime":1759,"correctAnswer":false},{"block":18,"image":"d8Right8_low.jpg","trial":250,"didAnswer":true,"imgDirection":"right","reactionTime":637,"correctAnswer":true},{"block":18,"image":"lf17Left5NoB_low.jpg","trial":251,"didAnswer":true,"imgDirection":"left","reactionTime":879,"correctAnswer":true},{"block":18,"image":"d7ori_7_left_9.0_jit15_0.9.jpg","trial":252,"didAnswer":true,"imgDirection":"left","reactionTime":1185,"correctAnswer":false},{"block":19,"image":"d0ori_right_9.0_0.9_18.jpg","trial":253,"didAnswer":true,"imgDirection":"right","reactionTime":1351,"correctAnswer":true},{"block":19,"image":"d0ori_right_9.0_0.9_22.jpg","trial":254,"didAnswer":true,"imgDirection":"right","reactionTime":1598,"correctAnswer":true},{"block":19,"image":"d0ori_left_9.0_0.9_20.jpg","trial":255,"didAnswer":true,"imgDirection":"left","reactionTime":844,"correctAnswer":true},{"block":19,"image":"d0ori_left_9.0_0.9_18.jpg","trial":256,"didAnswer":true,"imgDirection":"left","reactionTime":984,"correctAnswer":true},{"block":19,"image":"d0ori_left_9.0_0.9_23.jpg","trial":257,"didAnswer":true,"imgDirection":"left","reactionTime":1090,"correctAnswer":true},{"block":19,"image":"d0ori_right_9.0_0.9_20.jpg","trial":258,"didAnswer":true,"imgDirection":"right","reactionTime":1243,"correctAnswer":true},{"block":19,"image":"d13Right3NoB_low.jpg","trial":259,"didAnswer":true,"imgDirection":"right","reactionTime":698,"correctAnswer":true},{"block":19,"image":"d0ori_left_9.0_0.9_22.jpg","trial":260,"didAnswer":true,"imgDirection":"left","reactionTime":1270,"correctAnswer":true},{"block":19,"image":"d0ori_right_9.0_0.9_19.jpg","trial":261,"didAnswer":true,"imgDirection":"right","reactionTime":1088,"correctAnswer":true},{"block":19,"image":"lf0Left0_low.jpg","trial":262,"didAnswer":true,"imgDirection":"left","reactionTime":610,"correctAnswer":true},{"block":19,"image":"d0ori_left_9.0_0.9_19.jpg","trial":263,"didAnswer":true,"imgDirection":"left","reactionTime":1019,"correctAnswer":true},{"block":19,"image":"d0ori_right_9.0_0.9_21.jpg","trial":264,"didAnswer":true,"imgDirection":"right","reactionTime":821,"correctAnswer":true},{"block":19,"image":"d0ori_left_9.0_0.9_21.jpg","trial":265,"didAnswer":true,"imgDirection":"left","reactionTime":875,"correctAnswer":true},{"block":19,"image":"d0ori_right_9.0_0.9_23.jpg","trial":266,"didAnswer":true,"imgDirection":"right","reactionTime":698,"correctAnswer":true},{"block":20,"image":"d7ori_20_left_9.0_jit7_0.9.jpg","trial":267,"didAnswer":true,"imgDirection":"left","reactionTime":1225,"correctAnswer":true},{"block":20,"image":"d7ori_8_left_9.0_jit7_0.9.jpg","trial":268,"didAnswer":true,"imgDirection":"left","reactionTime":1322,"correctAnswer":true},{"block":20,"image":"d7ori_4_left_9.0_jit7_0.9.jpg","trial":269,"didAnswer":true,"imgDirection":"left","reactionTime":1373,"correctAnswer":false},{"block":20,"image":"d7ori_13_right_9.0_jit7_0.9.jpg","trial":270,"didAnswer":true,"imgDirection":"right","reactionTime":1117,"correctAnswer":false},{"block":20,"image":"d7ori_5_right_9.0_jit7_0.9.jpg","trial":271,"didAnswer":true,"imgDirection":"right","reactionTime":866,"correctAnswer":true},{"block":20,"image":"d7ori_1_right_9.0_jit7_0.9.jpg","trial":272,"didAnswer":true,"imgDirection":"right","reactionTime":786,"correctAnswer":false},{"block":20,"image":"d22Right10NoB_low.jpg","trial":273,"didAnswer":true,"imgDirection":"right","reactionTime":651,"correctAnswer":true},{"block":20,"image":"d7ori_9_right_9.0_jit7_0.9.jpg","trial":274,"didAnswer":true,"imgDirection":"right","reactionTime":1450,"correctAnswer":true},{"block":20,"image":"d7ori_21_right_9.0_jit7_0.9.jpg","trial":275,"didAnswer":true,"imgDirection":"right","reactionTime":688,"correctAnswer":false},{"block":20,"image":"d7ori_16_left_9.0_jit7_0.9.jpg","trial":276,"didAnswer":false,"imgDirection":"left","reactionTime":2006,"correctAnswer":null},{"block":20,"image":"d7ori_24_left_9.0_jit7_0.9.jpg","trial":277,"didAnswer":false,"imgDirection":"left","reactionTime":2008,"correctAnswer":null},{"block":20,"image":"lf1Left1_low.jpg","trial":278,"didAnswer":true,"imgDirection":"left","reactionTime":479,"correctAnswer":true},{"block":20,"image":"d7ori_12_left_9.0_jit7_0.9.jpg","trial":279,"didAnswer":true,"imgDirection":"left","reactionTime":933,"correctAnswer":true},{"block":20,"image":"d7ori_17_right_9.0_jit7_0.9.jpg","trial":280,"didAnswer":true,"imgDirection":"right","reactionTime":1100,"correctAnswer":true},{"block":21,"image":"left-d7ori_12_left_9.0_jit9_0.9.jpg","trial":281,"didAnswer":true,"imgDirection":"left","reactionTime":1422,"correctAnswer":false},{"block":21,"image":"d9Right9_low.jpg","trial":282,"didAnswer":true,"imgDirection":"right","reactionTime":600,"correctAnswer":true},{"block":21,"image":"left-d7ori_8_left_9.0_jit9_0.9.jpg","trial":283,"didAnswer":true,"imgDirection":"left","reactionTime":1367,"correctAnswer":true},{"block":21,"image":"right-d7ori_1_right_9.0_jit9_0.9.jpg","trial":284,"didAnswer":true,"imgDirection":"right","reactionTime":1400,"correctAnswer":true},{"block":21,"image":"left-d7ori_20_left_9.0_jit9_0.9.jpg","trial":285,"didAnswer":true,"imgDirection":"left","reactionTime":663,"correctAnswer":true},{"block":21,"image":"left-d7ori_24_left_9.0_jit9_0.9.jpg","trial":286,"didAnswer":true,"imgDirection":"left","reactionTime":1033,"correctAnswer":false},{"block":21,"image":"right-d7ori_17_right_9.0_jit9_0.9.jpg","trial":287,"didAnswer":true,"imgDirection":"right","reactionTime":916,"correctAnswer":true},{"block":21,"image":"right-d7ori_9_right_9.0_jit9_0.9.jpg","trial":288,"didAnswer":true,"imgDirection":"right","reactionTime":1445,"correctAnswer":true},{"block":21,"image":"left-d7ori_16_left_9.0_jit9_0.9.jpg","trial":289,"didAnswer":true,"imgDirection":"left","reactionTime":887,"correctAnswer":true},{"block":21,"image":"right-d7ori_21_right_9.0_jit9_0.9.jpg","trial":290,"didAnswer":true,"imgDirection":"right","reactionTime":1319,"correctAnswer":true},{"block":21,"image":"left-d7ori_4_left_9.0_jit9_0.9.jpg","trial":291,"didAnswer":true,"imgDirection":"left","reactionTime":932,"correctAnswer":true},{"block":21,"image":"right-d7ori_13_right_9.0_jit9_0.9.jpg","trial":292,"didAnswer":true,"imgDirection":"right","reactionTime":958,"correctAnswer":true},{"block":21,"image":"right-d7ori_5_right_9.0_jit9_0.9.jpg","trial":293,"didAnswer":true,"imgDirection":"right","reactionTime":750,"correctAnswer":true},{"block":21,"image":"lf14Left2NoB_low.jpg","trial":294,"didAnswer":true,"imgDirection":"left","reactionTime":750,"correctAnswer":true},{"block":22,"image":"d7ori_23_left_9.0_jit11_0.9.jpg","trial":295,"didAnswer":true,"imgDirection":"left","reactionTime":1439,"correctAnswer":false},{"block":22,"image":"d7ori_3_left_9.0_jit11_0.9.jpg","trial":296,"didAnswer":true,"imgDirection":"left","reactionTime":928,"correctAnswer":true},{"block":22,"image":"d7ori_19_left_9.0_jit11_0.9.jpg","trial":297,"didAnswer":true,"imgDirection":"left","reactionTime":1410,"correctAnswer":true},{"block":22,"image":"d7ori_14_right_9.0_jit11_0.9.jpg","trial":298,"didAnswer":true,"imgDirection":"right","reactionTime":1228,"correctAnswer":true},{"block":22,"image":"d7ori_10_right_9.0_jit11_0.9.jpg","trial":299,"didAnswer":true,"imgDirection":"right","reactionTime":1896,"correctAnswer":false},{"block":22,"image":"d7ori_15_left_9.0_jit11_0.9.jpg","trial":300,"didAnswer":false,"imgDirection":"left","reactionTime":2000,"correctAnswer":null},{"block":22,"image":"lf19Left7NoB_low.jpg","trial":301,"didAnswer":true,"imgDirection":"left","reactionTime":774,"correctAnswer":false},{"block":22,"image":"d7ori_2_right_9.0_jit11_0.9.jpg","trial":302,"didAnswer":false,"imgDirection":"right","reactionTime":2004,"correctAnswer":null},{"block":22,"image":"d7ori_6_right_9.0_jit11_0.9.jpg","trial":303,"didAnswer":true,"imgDirection":"right","reactionTime":948,"correctAnswer":true},{"block":22,"image":"lf8Left8_low.jpg","trial":304,"didAnswer":true,"imgDirection":"left","reactionTime":730,"correctAnswer":true},{"block":22,"image":"d7ori_22_right_9.0_jit11_0.9.jpg","trial":305,"didAnswer":true,"imgDirection":"right","reactionTime":1736,"correctAnswer":false},{"block":22,"image":"d7ori_7_left_9.0_jit11_0.9.jpg","trial":306,"didAnswer":true,"imgDirection":"left","reactionTime":1508,"correctAnswer":false},{"block":22,"image":"d7ori_18_right_9.0_jit11_0.9.jpg","trial":307,"didAnswer":true,"imgDirection":"right","reactionTime":789,"correctAnswer":false},{"block":22,"image":"d7ori_11_left_9.0_jit11_0.9.jpg","trial":308,"didAnswer":true,"imgDirection":"left","reactionTime":1182,"correctAnswer":true},{"block":23,"image":"d7ori_17_right_9.0_jit13_0.9.jpg","trial":309,"didAnswer":true,"imgDirection":"right","reactionTime":885,"correctAnswer":false},{"block":23,"image":"d7ori_9_right_9.0_jit13_0.9.jpg","trial":310,"didAnswer":true,"imgDirection":"right","reactionTime":1280,"correctAnswer":true},{"block":23,"image":"d7ori_1_right_9.0_jit13_0.9.jpg","trial":311,"didAnswer":true,"imgDirection":"right","reactionTime":1641,"correctAnswer":true},{"block":23,"image":"d7Right7_low.jpg","trial":312,"didAnswer":true,"imgDirection":"right","reactionTime":572,"correctAnswer":true},{"block":23,"image":"d18Right8NoB_low.jpg","trial":313,"didAnswer":true,"imgDirection":"right","reactionTime":538,"correctAnswer":true},{"block":23,"image":"d7ori_16_left_9.0_jit13_0.9.jpg","trial":314,"didAnswer":true,"imgDirection":"left","reactionTime":1637,"correctAnswer":true},{"block":23,"image":"d7ori_20_left_9.0_jit13_0.9.jpg","trial":315,"didAnswer":true,"imgDirection":"left","reactionTime":1532,"correctAnswer":false},{"block":23,"image":"d7ori_12_left_9.0_jit13_0.9.jpg","trial":316,"didAnswer":true,"imgDirection":"left","reactionTime":1322,"correctAnswer":true},{"block":23,"image":"d7ori_13_right_9.0_jit13_0.9.jpg","trial":317,"didAnswer":true,"imgDirection":"right","reactionTime":1040,"correctAnswer":true},{"block":23,"image":"d7ori_21_right_9.0_jit13_0.9.jpg","trial":318,"didAnswer":true,"imgDirection":"right","reactionTime":899,"correctAnswer":true},{"block":23,"image":"d7ori_24_left_9.0_jit13_0.9.jpg","trial":319,"didAnswer":true,"imgDirection":"left","reactionTime":650,"correctAnswer":false},{"block":23,"image":"d7ori_8_left_9.0_jit13_0.9.jpg","trial":320,"didAnswer":true,"imgDirection":"left","reactionTime":1320,"correctAnswer":true},{"block":23,"image":"d7ori_4_left_9.0_jit13_0.9.jpg","trial":321,"didAnswer":true,"imgDirection":"left","reactionTime":1477,"correctAnswer":true},{"block":23,"image":"d7ori_5_right_9.0_jit13_0.9.jpg","trial":322,"didAnswer":true,"imgDirection":"right","reactionTime":1591,"correctAnswer":true},{"block":24,"image":"d7ori_12_left_9.0_jit15_0.9.jpg","trial":323,"didAnswer":true,"imgDirection":"left","reactionTime":1942,"correctAnswer":false},{"block":24,"image":"d7ori_20_left_9.0_jit15_0.9.jpg","trial":324,"didAnswer":true,"imgDirection":"left","reactionTime":1401,"correctAnswer":true},{"block":24,"image":"d7ori_1_right_9.0_jit15_0.9.jpg","trial":325,"didAnswer":true,"imgDirection":"right","reactionTime":1420,"correctAnswer":true},{"block":24,"image":"d7ori_17_right_9.0_jit15_0.9.jpg","trial":326,"didAnswer":true,"imgDirection":"right","reactionTime":1613,"correctAnswer":false},{"block":24,"image":"d7ori_9_right_9.0_jit15_0.9.jpg","trial":327,"didAnswer":false,"imgDirection":"right","reactionTime":2009,"correctAnswer":null},{"block":24,"image":"lf20Left8NoB_low.jpg","trial":328,"didAnswer":true,"imgDirection":"left","reactionTime":819,"correctAnswer":true},{"block":24,"image":"d7ori_24_left_9.0_jit15_0.9.jpg","trial":329,"didAnswer":true,"imgDirection":"left","reactionTime":1336,"correctAnswer":true},{"block":24,"image":"d7ori_8_left_9.0_jit15_0.9.jpg","trial":330,"didAnswer":true,"imgDirection":"left","reactionTime":1508,"correctAnswer":false},{"block":24,"image":"d7ori_5_right_9.0_jit15_0.9.jpg","trial":331,"didAnswer":true,"imgDirection":"right","reactionTime":1540,"correctAnswer":false},{"block":24,"image":"d7ori_13_right_9.0_jit15_0.9.jpg","trial":332,"didAnswer":true,"imgDirection":"right","reactionTime":1700,"correctAnswer":false},{"block":24,"image":"d1Right1_low.jpg","trial":333,"didAnswer":true,"imgDirection":"right","reactionTime":884,"correctAnswer":true},{"block":24,"image":"d7ori_4_left_9.0_jit15_0.9.jpg","trial":334,"didAnswer":true,"imgDirection":"left","reactionTime":1866,"correctAnswer":true},{"block":24,"image":"d7ori_16_left_9.0_jit15_0.9.jpg","trial":335,"didAnswer":true,"imgDirection":"left","reactionTime":1698,"correctAnswer":true},{"block":24,"image":"d7ori_21_right_9.0_jit15_0.9.jpg","trial":336,"didAnswer":true,"imgDirection":"right","reactionTime":1614,"correctAnswer":false}],"browserInfo":{"windowInfo":{"width":1920,"height":974},"navigatorInfo":{"onLine":true,"vendor":"Google Inc.","appName":"Netscape","plugins":{"0":{"0":{}},"1":{"0":{}},"2":{"0":{},"1":{}},"3":{"0":{}}},"product":"Gecko","storage":{},"language":"cs","platform":"Win32","languages":["cs-CZ","cs"],"mimeTypes":{"0":{},"1":{},"2":{},"3":{},"4":{}},"userAgent":"Mozilla/5.0 (Windows NT 6.1; Win64; x64) AppleWebKit/537.36 (KHTML, like Gecko) Chrome/58.0.3029.110 Safari/537.36","vendorSub":"","appVersion":"5.0 (Windows NT 6.1; Win64; x64) AppleWebKit/537.36 (KHTML, like Gecko) Chrome/58.0.3029.110 Safari/537.36","doNotTrack":null,"productSub":"20030107","appCodeName":"Mozilla","credentials":{},"geolocation":{},"permissions":{},"mediaDevices":{},"presentation":{},"cookieEnabled":true,"serviceWorker":{},"maxTouchPoints":0,"hardwareConcurrency":6,"webkitTemporaryStorage":{},"webkitPersistentStorage":{}}}}