{"id":52,"finished":true,"user":"veronika","test":"Jovi4","started":"2017-05-29T06:42:23.745Z","ended":"2017-05-29T06:58:05.761Z","data":[{"block":1,"image":"d0ori_left_9.0_0.9_1.jpg","trial":1,"didAnswer":true,"imgDirection":"left","reactionTime":1080,"correctAnswer":true},{"block":1,"image":"d0ori_right_9.0_0.9_1.jpg","trial":2,"didAnswer":true,"imgDirection":"right","reactionTime":1112,"correctAnswer":true},{"block":1,"image":"d0ori_right_9.0_0.9_0.jpg","trial":3,"didAnswer":true,"imgDirection":"right","reactionTime":966,"correctAnswer":true},{"block":1,"image":"d0ori_left_9.0_0.9_3.jpg","trial":4,"didAnswer":true,"imgDirection":"left","reactionTime":1668,"correctAnswer":true},{"block":1,"image":"d0ori_left_9.0_0.9_4.jpg","trial":5,"didAnswer":false,"imgDirection":"left","reactionTime":2000,"correctAnswer":null},{"block":1,"image":"d6Right6_low.jpg","trial":6,"didAnswer":true,"imgDirection":"right","reactionTime":963,"correctAnswer":true},{"block":1,"image":"d0ori_right_9.0_0.9_3.jpg","trial":7,"didAnswer":true,"imgDirection":"right","reactionTime":685,"correctAnswer":true},{"block":1,"image":"d0ori_left_9.0_0.9_5.jpg","trial":8,"didAnswer":true,"imgDirection":"left","reactionTime":1554,"correctAnswer":true},{"block":1,"image":"d0ori_left_9.0_0.9_0.jpg","trial":9,"didAnswer":true,"imgDirection":"left","reactionTime":870,"correctAnswer":true},{"block":1,"image":"d0ori_right_9.0_0.9_4.jpg","trial":10,"didAnswer":true,"imgDirection":"right","reactionTime":948,"correctAnswer":true},{"block":1,"image":"d14Right4NoB_low.jpg","trial":11,"didAnswer":true,"imgDirection":"right","reactionTime":942,"correctAnswer":true},{"block":1,"image":"d0ori_left_9.0_0.9_2.jpg","trial":12,"didAnswer":true,"imgDirection":"left","reactionTime":925,"correctAnswer":true},{"block":1,"image":"d0ori_right_9.0_0.9_2.jpg","trial":13,"didAnswer":true,"imgDirection":"right","reactionTime":972,"correctAnswer":true},{"block":1,"image":"d0ori_right_9.0_0.9_5.jpg","trial":14,"didAnswer":true,"imgDirection":"right","reactionTime":1100,"correctAnswer":false},{"block":2,"image":"d7ori_17_left_9.0_jit7_0.9.jpg","trial":15,"didAnswer":true,"imgDirection":"left","reactionTime":1258,"correctAnswer":true},{"block":2,"image":"d7ori_9_left_9.0_jit7_0.9.jpg","trial":16,"didAnswer":true,"imgDirection":"left","reactionTime":846,"correctAnswer":true},{"block":2,"image":"d7ori_4_right_9.0_jit7_0.9.jpg","trial":17,"didAnswer":true,"imgDirection":"right","reactionTime":1317,"correctAnswer":false},{"block":2,"image":"d7ori_8_right_9.0_jit7_0.9.jpg","trial":18,"didAnswer":true,"imgDirection":"right","reactionTime":1525,"correctAnswer":true},{"block":2,"image":"d7ori_13_left_9.0_jit7_0.9.jpg","trial":19,"didAnswer":true,"imgDirection":"left","reactionTime":796,"correctAnswer":true},{"block":2,"image":"d7ori_1_left_9.0_jit7_0.9.jpg","trial":20,"didAnswer":true,"imgDirection":"left","reactionTime":661,"correctAnswer":true},{"block":2,"image":"lf18Left6NoB_low.jpg","trial":21,"didAnswer":true,"imgDirection":"left","reactionTime":620,"correctAnswer":true},{"block":2,"image":"d7ori_21_left_9.0_jit7_0.9.jpg","trial":22,"didAnswer":true,"imgDirection":"left","reactionTime":949,"correctAnswer":false},{"block":2,"image":"d7ori_12_right_9.0_jit7_0.9.jpg","trial":23,"didAnswer":true,"imgDirection":"right","reactionTime":1261,"correctAnswer":true},{"block":2,"image":"d7ori_16_right_9.0_jit7_0.9.jpg","trial":24,"didAnswer":true,"imgDirection":"right","reactionTime":727,"correctAnswer":true},{"block":2,"image":"d7ori_5_left_9.0_jit7_0.9.jpg","trial":25,"didAnswer":true,"imgDirection":"left","reactionTime":951,"correctAnswer":true},{"block":2,"image":"d7ori_24_right_9.0_jit7_0.9.jpg","trial":26,"didAnswer":true,"imgDirection":"right","reactionTime":1447,"correctAnswer":false},{"block":2,"image":"lf5Left5_low.jpg","trial":27,"didAnswer":true,"imgDirection":"left","reactionTime":754,"correctAnswer":true},{"block":2,"image":"d7ori_20_right_9.0_jit7_0.9.jpg","trial":28,"didAnswer":true,"imgDirection":"right","reactionTime":1167,"correctAnswer":true},{"block":3,"image":"right-d7ori_20_right_9.0_jit9_0.9.jpg","trial":29,"didAnswer":true,"imgDirection":"right","reactionTime":734,"correctAnswer":true},{"block":3,"image":"left-d7ori_5_left_9.0_jit9_0.9.jpg","trial":30,"didAnswer":true,"imgDirection":"left","reactionTime":1371,"correctAnswer":true},{"block":3,"image":"right-d7ori_4_right_9.0_jit9_0.9.jpg","trial":31,"didAnswer":true,"imgDirection":"right","reactionTime":804,"correctAnswer":true},{"block":3,"image":"left-d7ori_13_left_9.0_jit9_0.9.jpg","trial":32,"didAnswer":true,"imgDirection":"left","reactionTime":1014,"correctAnswer":true},{"block":3,"image":"left-d7ori_21_left_9.0_jit9_0.9.jpg","trial":33,"didAnswer":true,"imgDirection":"left","reactionTime":741,"correctAnswer":true},{"block":3,"image":"left-d7ori_17_left_9.0_jit9_0.9.jpg","trial":34,"didAnswer":true,"imgDirection":"left","reactionTime":669,"correctAnswer":true},{"block":3,"image":"right-d7ori_24_right_9.0_jit9_0.9.jpg","trial":35,"didAnswer":true,"imgDirection":"right","reactionTime":909,"correctAnswer":true},{"block":3,"image":"right-d7ori_16_right_9.0_jit9_0.9.jpg","trial":36,"didAnswer":true,"imgDirection":"right","reactionTime":589,"correctAnswer":false},{"block":3,"image":"right-d7ori_12_right_9.0_jit9_0.9.jpg","trial":37,"didAnswer":true,"imgDirection":"right","reactionTime":804,"correctAnswer":true},{"block":3,"image":"lf23Left11NoB_low.jpg","trial":38,"didAnswer":true,"imgDirection":"left","reactionTime":685,"correctAnswer":true},{"block":3,"image":"right-d7ori_8_right_9.0_jit9_0.9.jpg","trial":39,"didAnswer":true,"imgDirection":"right","reactionTime":853,"correctAnswer":true},{"block":3,"image":"left-d7ori_9_left_9.0_jit9_0.9.jpg","trial":40,"didAnswer":true,"imgDirection":"left","reactionTime":1326,"correctAnswer":false},{"block":3,"image":"lf2Left2_low.jpg","trial":41,"didAnswer":true,"imgDirection":"left","reactionTime":886,"correctAnswer":true},{"block":3,"image":"left-d7ori_1_left_9.0_jit9_0.9.jpg","trial":42,"didAnswer":true,"imgDirection":"left","reactionTime":1029,"correctAnswer":true},{"block":4,"image":"d7ori_19_right_9.0_jit11_0.9.jpg","trial":43,"didAnswer":true,"imgDirection":"right","reactionTime":850,"correctAnswer":true},{"block":4,"image":"d7ori_7_right_9.0_jit11_0.9.jpg","trial":44,"didAnswer":true,"imgDirection":"right","reactionTime":1171,"correctAnswer":false},{"block":4,"image":"d7ori_18_left_9.0_jit11_0.9.jpg","trial":45,"didAnswer":true,"imgDirection":"left","reactionTime":622,"correctAnswer":true},{"block":4,"image":"d7ori_11_right_9.0_jit11_0.9.jpg","trial":46,"didAnswer":true,"imgDirection":"right","reactionTime":940,"correctAnswer":false},{"block":4,"image":"d7ori_2_left_9.0_jit11_0.9.jpg","trial":47,"didAnswer":true,"imgDirection":"left","reactionTime":645,"correctAnswer":true},{"block":4,"image":"d10Right0NoB_low.jpg","trial":48,"didAnswer":true,"imgDirection":"right","reactionTime":597,"correctAnswer":true},{"block":4,"image":"lf10Left10_low.jpg","trial":49,"didAnswer":true,"imgDirection":"left","reactionTime":686,"correctAnswer":true},{"block":4,"image":"d7ori_14_left_9.0_jit11_0.9.jpg","trial":50,"didAnswer":true,"imgDirection":"left","reactionTime":565,"correctAnswer":true},{"block":4,"image":"d7ori_10_left_9.0_jit11_0.9.jpg","trial":51,"didAnswer":true,"imgDirection":"left","reactionTime":1386,"correctAnswer":true},{"block":4,"image":"d7ori_15_right_9.0_jit11_0.9.jpg","trial":52,"didAnswer":true,"imgDirection":"right","reactionTime":1027,"correctAnswer":false},{"block":4,"image":"d7ori_6_left_9.0_jit11_0.9.jpg","trial":53,"didAnswer":true,"imgDirection":"left","reactionTime":564,"correctAnswer":true},{"block":4,"image":"d7ori_22_left_9.0_jit11_0.9.jpg","trial":54,"didAnswer":true,"imgDirection":"left","reactionTime":805,"correctAnswer":true},{"block":4,"image":"d7ori_23_right_9.0_jit11_0.9.jpg","trial":55,"didAnswer":true,"imgDirection":"right","reactionTime":845,"correctAnswer":false},{"block":4,"image":"d7ori_3_right_9.0_jit11_0.9.jpg","trial":56,"didAnswer":true,"imgDirection":"right","reactionTime":837,"correctAnswer":true},{"block":5,"image":"d7ori_4_right_9.0_jit13_0.9.jpg","trial":57,"didAnswer":true,"imgDirection":"right","reactionTime":1149,"correctAnswer":false},{"block":5,"image":"d7ori_21_left_9.0_jit13_0.9.jpg","trial":58,"didAnswer":true,"imgDirection":"left","reactionTime":1725,"correctAnswer":false},{"block":5,"image":"d7ori_16_right_9.0_jit13_0.9.jpg","trial":59,"didAnswer":true,"imgDirection":"right","reactionTime":813,"correctAnswer":true},{"block":5,"image":"d4Right4_low.jpg","trial":60,"didAnswer":true,"imgDirection":"right","reactionTime":621,"correctAnswer":true},{"block":5,"image":"d7ori_5_left_9.0_jit13_0.9.jpg","trial":61,"didAnswer":true,"imgDirection":"left","reactionTime":1173,"correctAnswer":false},{"block":5,"image":"d7ori_12_right_9.0_jit13_0.9.jpg","trial":62,"didAnswer":true,"imgDirection":"right","reactionTime":852,"correctAnswer":false},{"block":5,"image":"lf13Left1NoB_low.jpg","trial":63,"didAnswer":true,"imgDirection":"left","reactionTime":525,"correctAnswer":true},{"block":5,"image":"d7ori_20_right_9.0_jit13_0.9.jpg","trial":64,"didAnswer":true,"imgDirection":"right","reactionTime":675,"correctAnswer":true},{"block":5,"image":"d7ori_8_right_9.0_jit13_0.9.jpg","trial":65,"didAnswer":true,"imgDirection":"right","reactionTime":865,"correctAnswer":true},{"block":5,"image":"d7ori_24_right_9.0_jit13_0.9.jpg","trial":66,"didAnswer":true,"imgDirection":"right","reactionTime":1101,"correctAnswer":true},{"block":5,"image":"d7ori_9_left_9.0_jit13_0.9.jpg","trial":67,"didAnswer":true,"imgDirection":"left","reactionTime":1627,"correctAnswer":false},{"block":5,"image":"d7ori_1_left_9.0_jit13_0.9.jpg","trial":68,"didAnswer":true,"imgDirection":"left","reactionTime":1045,"correctAnswer":false},{"block":5,"image":"d7ori_13_left_9.0_jit13_0.9.jpg","trial":69,"didAnswer":true,"imgDirection":"left","reactionTime":1070,"correctAnswer":true},{"block":5,"image":"d7ori_17_left_9.0_jit13_0.9.jpg","trial":70,"didAnswer":true,"imgDirection":"left","reactionTime":1625,"correctAnswer":false},{"block":6,"image":"lf6Left6_low.jpg","trial":71,"didAnswer":true,"imgDirection":"left","reactionTime":563,"correctAnswer":true},{"block":6,"image":"d7ori_8_right_9.0_jit15_0.9.jpg","trial":72,"didAnswer":true,"imgDirection":"right","reactionTime":1157,"correctAnswer":true},{"block":6,"image":"d7ori_13_left_9.0_jit15_0.9.jpg","trial":73,"didAnswer":true,"imgDirection":"left","reactionTime":797,"correctAnswer":true},{"block":6,"image":"d7ori_1_left_9.0_jit15_0.9.jpg","trial":74,"didAnswer":true,"imgDirection":"left","reactionTime":1332,"correctAnswer":true},{"block":6,"image":"d7ori_16_right_9.0_jit15_0.9.jpg","trial":75,"didAnswer":false,"imgDirection":"right","reactionTime":2000,"correctAnswer":null},{"block":6,"image":"d7ori_12_right_9.0_jit15_0.9.jpg","trial":76,"didAnswer":true,"imgDirection":"right","reactionTime":1001,"correctAnswer":true},{"block":6,"image":"d7ori_21_left_9.0_jit15_0.9.jpg","trial":77,"didAnswer":true,"imgDirection":"left","reactionTime":1581,"correctAnswer":false},{"block":6,"image":"d7ori_24_right_9.0_jit15_0.9.jpg","trial":78,"didAnswer":true,"imgDirection":"right","reactionTime":1413,"correctAnswer":false},{"block":6,"image":"d7ori_17_left_9.0_jit15_0.9.jpg","trial":79,"didAnswer":true,"imgDirection":"left","reactionTime":741,"correctAnswer":true},{"block":6,"image":"d7ori_20_right_9.0_jit15_0.9.jpg","trial":80,"didAnswer":true,"imgDirection":"right","reactionTime":1390,"correctAnswer":false},{"block":6,"image":"d7ori_5_left_9.0_jit15_0.9.jpg","trial":81,"didAnswer":false,"imgDirection":"left","reactionTime":1999,"correctAnswer":null},{"block":6,"image":"d7ori_4_right_9.0_jit15_0.9.jpg","trial":82,"didAnswer":true,"imgDirection":"right","reactionTime":739,"correctAnswer":true},{"block":6,"image":"d15Right5NoB_low.jpg","trial":83,"didAnswer":true,"imgDirection":"right","reactionTime":614,"correctAnswer":true},{"block":6,"image":"d7ori_9_left_9.0_jit15_0.9.jpg","trial":84,"didAnswer":true,"imgDirection":"left","reactionTime":1222,"correctAnswer":true},{"block":7,"image":"d0ori_left_9.0_0.9_11.jpg","trial":85,"didAnswer":true,"imgDirection":"left","reactionTime":983,"correctAnswer":true},{"block":7,"image":"d11Right1NoB_low.jpg","trial":86,"didAnswer":true,"imgDirection":"right","reactionTime":584,"correctAnswer":true},{"block":7,"image":"d0ori_right_9.0_0.9_7.jpg","trial":87,"didAnswer":true,"imgDirection":"right","reactionTime":754,"correctAnswer":true},{"block":7,"image":"d0ori_right_9.0_0.9_8.jpg","trial":88,"didAnswer":true,"imgDirection":"right","reactionTime":557,"correctAnswer":true},{"block":7,"image":"d0ori_left_9.0_0.9_10.jpg","trial":89,"didAnswer":true,"imgDirection":"left","reactionTime":676,"correctAnswer":true},{"block":7,"image":"d0ori_right_9.0_0.9_11.jpg","trial":90,"didAnswer":true,"imgDirection":"right","reactionTime":878,"correctAnswer":true},{"block":7,"image":"d0ori_right_9.0_0.9_6.jpg","trial":91,"didAnswer":true,"imgDirection":"right","reactionTime":675,"correctAnswer":true},{"block":7,"image":"d0ori_right_9.0_0.9_10.jpg","trial":92,"didAnswer":true,"imgDirection":"right","reactionTime":741,"correctAnswer":true},{"block":7,"image":"d0ori_right_9.0_0.9_9.jpg","trial":93,"didAnswer":true,"imgDirection":"right","reactionTime":821,"correctAnswer":true},{"block":7,"image":"d0ori_left_9.0_0.9_9.jpg","trial":94,"didAnswer":true,"imgDirection":"left","reactionTime":725,"correctAnswer":true},{"block":7,"image":"d0ori_left_9.0_0.9_7.jpg","trial":95,"didAnswer":true,"imgDirection":"left","reactionTime":621,"correctAnswer":true},{"block":7,"image":"d0ori_left_9.0_0.9_6.jpg","trial":96,"didAnswer":true,"imgDirection":"left","reactionTime":684,"correctAnswer":true},{"block":7,"image":"d0ori_left_9.0_0.9_8.jpg","trial":97,"didAnswer":true,"imgDirection":"left","reactionTime":637,"correctAnswer":true},{"block":7,"image":"d11Right11_low.jpg","trial":98,"didAnswer":true,"imgDirection":"right","reactionTime":829,"correctAnswer":true},{"block":8,"image":"d7ori_14_left_9.0_jit7_0.9.jpg","trial":99,"didAnswer":true,"imgDirection":"left","reactionTime":837,"correctAnswer":true},{"block":8,"image":"d7ori_7_right_9.0_jit7_0.9.jpg","trial":100,"didAnswer":true,"imgDirection":"right","reactionTime":713,"correctAnswer":true},{"block":8,"image":"d7ori_2_left_9.0_jit7_0.9.jpg","trial":101,"didAnswer":true,"imgDirection":"left","reactionTime":542,"correctAnswer":true},{"block":8,"image":"d7ori_23_right_9.0_jit7_0.9.jpg","trial":102,"didAnswer":true,"imgDirection":"right","reactionTime":1347,"correctAnswer":true},{"block":8,"image":"d7ori_19_right_9.0_jit7_0.9.jpg","trial":103,"didAnswer":true,"imgDirection":"right","reactionTime":661,"correctAnswer":false},{"block":8,"image":"d7ori_15_right_9.0_jit7_0.9.jpg","trial":104,"didAnswer":true,"imgDirection":"right","reactionTime":565,"correctAnswer":false},{"block":8,"image":"d7ori_10_left_9.0_jit7_0.9.jpg","trial":105,"didAnswer":true,"imgDirection":"left","reactionTime":665,"correctAnswer":true},{"block":8,"image":"d7ori_18_left_9.0_jit7_0.9.jpg","trial":106,"didAnswer":true,"imgDirection":"left","reactionTime":558,"correctAnswer":true},{"block":8,"image":"d7ori_22_left_9.0_jit7_0.9.jpg","trial":107,"didAnswer":true,"imgDirection":"left","reactionTime":821,"correctAnswer":true},{"block":8,"image":"d7ori_11_right_9.0_jit7_0.9.jpg","trial":108,"didAnswer":true,"imgDirection":"right","reactionTime":757,"correctAnswer":false},{"block":8,"image":"d7ori_3_right_9.0_jit7_0.9.jpg","trial":109,"didAnswer":true,"imgDirection":"right","reactionTime":638,"correctAnswer":false},{"block":8,"image":"d7ori_6_left_9.0_jit7_0.9.jpg","trial":110,"didAnswer":true,"imgDirection":"left","reactionTime":756,"correctAnswer":true},{"block":8,"image":"d2Right2_low.jpg","trial":111,"didAnswer":true,"imgDirection":"right","reactionTime":557,"correctAnswer":true},{"block":8,"image":"lf16Left4NoB_low.jpg","trial":112,"didAnswer":true,"imgDirection":"left","reactionTime":645,"correctAnswer":true},{"block":9,"image":"left-d7ori_2_left_9.0_jit9_0.9.jpg","trial":113,"didAnswer":true,"imgDirection":"left","reactionTime":605,"correctAnswer":true},{"block":9,"image":"right-d7ori_23_right_9.0_jit9_0.9.jpg","trial":114,"didAnswer":true,"imgDirection":"right","reactionTime":733,"correctAnswer":true},{"block":9,"image":"left-d7ori_22_left_9.0_jit9_0.9.jpg","trial":115,"didAnswer":true,"imgDirection":"left","reactionTime":685,"correctAnswer":true},{"block":9,"image":"left-d7ori_18_left_9.0_jit9_0.9.jpg","trial":116,"didAnswer":true,"imgDirection":"left","reactionTime":580,"correctAnswer":true},{"block":9,"image":"right-d7ori_15_right_9.0_jit9_0.9.jpg","trial":117,"didAnswer":true,"imgDirection":"right","reactionTime":476,"correctAnswer":false},{"block":9,"image":"left-d7ori_14_left_9.0_jit9_0.9.jpg","trial":118,"didAnswer":true,"imgDirection":"left","reactionTime":413,"correctAnswer":false},{"block":9,"image":"left-d7ori_6_left_9.0_jit9_0.9.jpg","trial":119,"didAnswer":true,"imgDirection":"left","reactionTime":701,"correctAnswer":false},{"block":9,"image":"right-d7ori_11_right_9.0_jit9_0.9.jpg","trial":120,"didAnswer":true,"imgDirection":"right","reactionTime":565,"correctAnswer":false},{"block":9,"image":"lf9Left9_low.jpg","trial":121,"didAnswer":true,"imgDirection":"left","reactionTime":421,"correctAnswer":true},{"block":9,"image":"left-d7ori_10_left_9.0_jit9_0.9.jpg","trial":122,"didAnswer":true,"imgDirection":"left","reactionTime":429,"correctAnswer":true},{"block":9,"image":"right-d7ori_7_right_9.0_jit9_0.9.jpg","trial":123,"didAnswer":true,"imgDirection":"right","reactionTime":773,"correctAnswer":false},{"block":9,"image":"right-d7ori_19_right_9.0_jit9_0.9.jpg","trial":124,"didAnswer":true,"imgDirection":"right","reactionTime":510,"correctAnswer":false},{"block":9,"image":"right-d7ori_3_right_9.0_jit9_0.9.jpg","trial":125,"didAnswer":true,"imgDirection":"right","reactionTime":675,"correctAnswer":true},{"block":9,"image":"d19Right9NoB_low.jpg","trial":126,"didAnswer":true,"imgDirection":"right","reactionTime":540,"correctAnswer":true},{"block":10,"image":"d7ori_8_right_9.0_jit11_0.9.jpg","trial":127,"didAnswer":true,"imgDirection":"right","reactionTime":784,"correctAnswer":true},{"block":10,"image":"d7ori_1_left_9.0_jit11_0.9.jpg","trial":128,"didAnswer":true,"imgDirection":"left","reactionTime":728,"correctAnswer":true},{"block":10,"image":"d7ori_5_left_9.0_jit11_0.9.jpg","trial":129,"didAnswer":true,"imgDirection":"left","reactionTime":530,"correctAnswer":true},{"block":10,"image":"d12Right2NoB_low.jpg","trial":130,"didAnswer":true,"imgDirection":"right","reactionTime":622,"correctAnswer":true},{"block":10,"image":"d7ori_17_left_9.0_jit11_0.9.jpg","trial":131,"didAnswer":true,"imgDirection":"left","reactionTime":588,"correctAnswer":false},{"block":10,"image":"d7ori_24_right_9.0_jit11_0.9.jpg","trial":132,"didAnswer":true,"imgDirection":"right","reactionTime":613,"correctAnswer":true},{"block":10,"image":"d7ori_16_right_9.0_jit11_0.9.jpg","trial":133,"didAnswer":true,"imgDirection":"right","reactionTime":884,"correctAnswer":true},{"block":10,"image":"d7ori_20_right_9.0_jit11_0.9.jpg","trial":134,"didAnswer":true,"imgDirection":"right","reactionTime":413,"correctAnswer":true},{"block":10,"image":"d7ori_13_left_9.0_jit11_0.9.jpg","trial":135,"didAnswer":true,"imgDirection":"left","reactionTime":541,"correctAnswer":false},{"block":10,"image":"d7ori_21_left_9.0_jit11_0.9.jpg","trial":136,"didAnswer":true,"imgDirection":"left","reactionTime":325,"correctAnswer":false},{"block":10,"image":"d7ori_4_right_9.0_jit11_0.9.jpg","trial":137,"didAnswer":true,"imgDirection":"right","reactionTime":662,"correctAnswer":true},{"block":10,"image":"d7ori_12_right_9.0_jit11_0.9.jpg","trial":138,"didAnswer":true,"imgDirection":"right","reactionTime":1268,"correctAnswer":true},{"block":10,"image":"lf7Left7_low.jpg","trial":139,"didAnswer":true,"imgDirection":"left","reactionTime":454,"correctAnswer":true},{"block":10,"image":"d7ori_9_left_9.0_jit11_0.9.jpg","trial":140,"didAnswer":true,"imgDirection":"left","reactionTime":1021,"correctAnswer":false},{"block":11,"image":"d7ori_3_right_9.0_jit13_0.9.jpg","trial":141,"didAnswer":true,"imgDirection":"right","reactionTime":720,"correctAnswer":true},{"block":11,"image":"d7ori_2_left_9.0_jit13_0.9.jpg","trial":142,"didAnswer":true,"imgDirection":"left","reactionTime":789,"correctAnswer":false},{"block":11,"image":"d7ori_6_left_9.0_jit13_0.9.jpg","trial":143,"didAnswer":true,"imgDirection":"left","reactionTime":894,"correctAnswer":true},{"block":11,"image":"d7ori_7_right_9.0_jit13_0.9.jpg","trial":144,"didAnswer":true,"imgDirection":"right","reactionTime":693,"correctAnswer":false},{"block":11,"image":"d7ori_19_right_9.0_jit13_0.9.jpg","trial":145,"didAnswer":true,"imgDirection":"right","reactionTime":710,"correctAnswer":false},{"block":11,"image":"lf15Left3NoB_low.jpg","trial":146,"didAnswer":true,"imgDirection":"left","reactionTime":477,"correctAnswer":true},{"block":11,"image":"d7ori_10_left_9.0_jit13_0.9.jpg","trial":147,"didAnswer":true,"imgDirection":"left","reactionTime":661,"correctAnswer":true},{"block":11,"image":"d7ori_18_left_9.0_jit13_0.9.jpg","trial":148,"didAnswer":true,"imgDirection":"left","reactionTime":1325,"correctAnswer":true},{"block":11,"image":"d7ori_15_right_9.0_jit13_0.9.jpg","trial":149,"didAnswer":true,"imgDirection":"right","reactionTime":805,"correctAnswer":true},{"block":11,"image":"d7ori_22_left_9.0_jit13_0.9.jpg","trial":150,"didAnswer":true,"imgDirection":"left","reactionTime":693,"correctAnswer":true},{"block":11,"image":"d7ori_14_left_9.0_jit13_0.9.jpg","trial":151,"didAnswer":true,"imgDirection":"left","reactionTime":750,"correctAnswer":true},{"block":11,"image":"d3Right3_low.jpg","trial":152,"didAnswer":true,"imgDirection":"right","reactionTime":503,"correctAnswer":true},{"block":11,"image":"d7ori_23_right_9.0_jit13_0.9.jpg","trial":153,"didAnswer":true,"imgDirection":"right","reactionTime":949,"correctAnswer":false},{"block":11,"image":"d7ori_11_right_9.0_jit13_0.9.jpg","trial":154,"didAnswer":true,"imgDirection":"right","reactionTime":645,"correctAnswer":false},{"block":12,"image":"d7ori_23_right_9.0_jit15_0.9.jpg","trial":155,"didAnswer":true,"imgDirection":"right","reactionTime":1020,"correctAnswer":true},{"block":12,"image":"d7ori_3_right_9.0_jit15_0.9.jpg","trial":156,"didAnswer":true,"imgDirection":"right","reactionTime":535,"correctAnswer":true},{"block":12,"image":"d7ori_15_right_9.0_jit15_0.9.jpg","trial":157,"didAnswer":true,"imgDirection":"right","reactionTime":387,"correctAnswer":true},{"block":12,"image":"lf4Left4_low.jpg","trial":158,"didAnswer":true,"imgDirection":"left","reactionTime":741,"correctAnswer":true},{"block":12,"image":"d7ori_18_left_9.0_jit15_0.9.jpg","trial":159,"didAnswer":true,"imgDirection":"left","reactionTime":564,"correctAnswer":false},{"block":12,"image":"d7ori_22_left_9.0_jit15_0.9.jpg","trial":160,"didAnswer":true,"imgDirection":"left","reactionTime":604,"correctAnswer":false},{"block":12,"image":"d7ori_10_left_9.0_jit15_0.9.jpg","trial":161,"didAnswer":true,"imgDirection":"left","reactionTime":518,"correctAnswer":false},{"block":12,"image":"d7ori_19_right_9.0_jit15_0.9.jpg","trial":162,"didAnswer":true,"imgDirection":"right","reactionTime":523,"correctAnswer":true},{"block":12,"image":"d7ori_6_left_9.0_jit15_0.9.jpg","trial":163,"didAnswer":true,"imgDirection":"left","reactionTime":708,"correctAnswer":false},{"block":12,"image":"d7ori_2_left_9.0_jit15_0.9.jpg","trial":164,"didAnswer":true,"imgDirection":"left","reactionTime":492,"correctAnswer":false},{"block":12,"image":"lf21Left9NoB_low.jpg","trial":165,"didAnswer":true,"imgDirection":"left","reactionTime":549,"correctAnswer":true},{"block":12,"image":"d7ori_14_left_9.0_jit15_0.9.jpg","trial":166,"didAnswer":true,"imgDirection":"left","reactionTime":579,"correctAnswer":true},{"block":12,"image":"d7ori_11_right_9.0_jit15_0.9.jpg","trial":167,"didAnswer":true,"imgDirection":"right","reactionTime":557,"correctAnswer":false},{"block":12,"image":"d7ori_7_right_9.0_jit15_0.9.jpg","trial":168,"didAnswer":true,"imgDirection":"right","reactionTime":693,"correctAnswer":false},{"block":13,"image":"d0ori_right_9.0_0.9_13.jpg","trial":169,"didAnswer":true,"imgDirection":"right","reactionTime":560,"correctAnswer":false},{"block":13,"image":"d0ori_left_9.0_0.9_15.jpg","trial":170,"didAnswer":true,"imgDirection":"left","reactionTime":604,"correctAnswer":true},{"block":13,"image":"d0ori_right_9.0_0.9_12.jpg","trial":171,"didAnswer":true,"imgDirection":"right","reactionTime":623,"correctAnswer":false},{"block":13,"image":"d0ori_right_9.0_0.9_16.jpg","trial":172,"didAnswer":true,"imgDirection":"right","reactionTime":908,"correctAnswer":true},{"block":13,"image":"d17Right7NoB_low.jpg","trial":173,"didAnswer":true,"imgDirection":"right","reactionTime":501,"correctAnswer":true},{"block":13,"image":"d0ori_right_9.0_0.9_17.jpg","trial":174,"didAnswer":true,"imgDirection":"right","reactionTime":909,"correctAnswer":true},{"block":13,"image":"d0ori_left_9.0_0.9_13.jpg","trial":175,"didAnswer":true,"imgDirection":"left","reactionTime":605,"correctAnswer":true},{"block":13,"image":"d0ori_left_9.0_0.9_16.jpg","trial":176,"didAnswer":true,"imgDirection":"left","reactionTime":653,"correctAnswer":true},{"block":13,"image":"d0ori_left_9.0_0.9_12.jpg","trial":177,"didAnswer":true,"imgDirection":"left","reactionTime":549,"correctAnswer":true},{"block":13,"image":"d0Right0_low.jpg","trial":178,"didAnswer":true,"imgDirection":"right","reactionTime":606,"correctAnswer":true},{"block":13,"image":"d0ori_left_9.0_0.9_14.jpg","trial":179,"didAnswer":true,"imgDirection":"left","reactionTime":655,"correctAnswer":true},{"block":13,"image":"d0ori_right_9.0_0.9_14.jpg","trial":180,"didAnswer":true,"imgDirection":"right","reactionTime":1007,"correctAnswer":true},{"block":13,"image":"d0ori_right_9.0_0.9_15.jpg","trial":181,"didAnswer":true,"imgDirection":"right","reactionTime":796,"correctAnswer":true},{"block":13,"image":"d0ori_left_9.0_0.9_17.jpg","trial":182,"didAnswer":true,"imgDirection":"left","reactionTime":468,"correctAnswer":false},{"block":14,"image":"d7ori_10_right_9.0_jit7_0.9.jpg","trial":183,"didAnswer":true,"imgDirection":"right","reactionTime":744,"correctAnswer":true},{"block":14,"image":"d7ori_22_right_9.0_jit7_0.9.jpg","trial":184,"didAnswer":true,"imgDirection":"right","reactionTime":836,"correctAnswer":false},{"block":14,"image":"d23Right11NoB_low.jpg","trial":185,"didAnswer":true,"imgDirection":"right","reactionTime":492,"correctAnswer":true},{"block":14,"image":"d7ori_18_right_9.0_jit7_0.9.jpg","trial":186,"didAnswer":true,"imgDirection":"right","reactionTime":582,"correctAnswer":true},{"block":14,"image":"d10Right10_low.jpg","trial":187,"didAnswer":true,"imgDirection":"right","reactionTime":541,"correctAnswer":true},{"block":14,"image":"d7ori_15_left_9.0_jit7_0.9.jpg","trial":188,"didAnswer":true,"imgDirection":"left","reactionTime":837,"correctAnswer":true},{"block":14,"image":"d7ori_3_left_9.0_jit7_0.9.jpg","trial":189,"didAnswer":true,"imgDirection":"left","reactionTime":669,"correctAnswer":true},{"block":14,"image":"d7ori_6_right_9.0_jit7_0.9.jpg","trial":190,"didAnswer":true,"imgDirection":"right","reactionTime":1589,"correctAnswer":false},{"block":14,"image":"d7ori_2_right_9.0_jit7_0.9.jpg","trial":191,"didAnswer":true,"imgDirection":"right","reactionTime":732,"correctAnswer":true},{"block":14,"image":"d7ori_7_left_9.0_jit7_0.9.jpg","trial":192,"didAnswer":true,"imgDirection":"left","reactionTime":974,"correctAnswer":true},{"block":14,"image":"d7ori_14_right_9.0_jit7_0.9.jpg","trial":193,"didAnswer":true,"imgDirection":"right","reactionTime":581,"correctAnswer":true},{"block":14,"image":"d7ori_11_left_9.0_jit7_0.9.jpg","trial":194,"didAnswer":true,"imgDirection":"left","reactionTime":933,"correctAnswer":false},{"block":14,"image":"d7ori_19_left_9.0_jit7_0.9.jpg","trial":195,"didAnswer":true,"imgDirection":"left","reactionTime":1957,"correctAnswer":true},{"block":14,"image":"d7ori_23_left_9.0_jit7_0.9.jpg","trial":196,"didAnswer":true,"imgDirection":"left","reactionTime":661,"correctAnswer":true},{"block":15,"image":"left-d7ori_19_left_9.0_jit9_0.9.jpg","trial":197,"didAnswer":true,"imgDirection":"left","reactionTime":967,"correctAnswer":true},{"block":15,"image":"right-d7ori_10_right_9.0_jit9_0.9.jpg","trial":198,"didAnswer":true,"imgDirection":"right","reactionTime":613,"correctAnswer":false},{"block":15,"image":"left-d7ori_3_left_9.0_jit9_0.9.jpg","trial":199,"didAnswer":true,"imgDirection":"left","reactionTime":719,"correctAnswer":true},{"block":15,"image":"left-d7ori_23_left_9.0_jit9_0.9.jpg","trial":200,"didAnswer":true,"imgDirection":"left","reactionTime":845,"correctAnswer":true},{"block":15,"image":"right-d7ori_22_right_9.0_jit9_0.9.jpg","trial":201,"didAnswer":true,"imgDirection":"right","reactionTime":550,"correctAnswer":false},{"block":15,"image":"lf11Left11_low.jpg","trial":202,"didAnswer":true,"imgDirection":"left","reactionTime":549,"correctAnswer":true},{"block":15,"image":"left-d7ori_15_left_9.0_jit9_0.9.jpg","trial":203,"didAnswer":true,"imgDirection":"left","reactionTime":469,"correctAnswer":true},{"block":15,"image":"left-d7ori_7_left_9.0_jit9_0.9.jpg","trial":204,"didAnswer":true,"imgDirection":"left","reactionTime":598,"correctAnswer":true},{"block":15,"image":"right-d7ori_6_right_9.0_jit9_0.9.jpg","trial":205,"didAnswer":true,"imgDirection":"right","reactionTime":631,"correctAnswer":false},{"block":15,"image":"right-d7ori_2_right_9.0_jit9_0.9.jpg","trial":206,"didAnswer":true,"imgDirection":"right","reactionTime":1964,"correctAnswer":false},{"block":15,"image":"left-d7ori_11_left_9.0_jit9_0.9.jpg","trial":207,"didAnswer":true,"imgDirection":"left","reactionTime":1015,"correctAnswer":true},{"block":15,"image":"right-d7ori_14_right_9.0_jit9_0.9.jpg","trial":208,"didAnswer":true,"imgDirection":"right","reactionTime":1141,"correctAnswer":true},{"block":15,"image":"lf22Left10NoB_low.jpg","trial":209,"didAnswer":true,"imgDirection":"left","reactionTime":614,"correctAnswer":true},{"block":15,"image":"right-d7ori_18_right_9.0_jit9_0.9.jpg","trial":210,"didAnswer":true,"imgDirection":"right","reactionTime":1133,"correctAnswer":true},{"block":16,"image":"d7ori_12_left_9.0_jit11_0.9.jpg","trial":211,"didAnswer":true,"imgDirection":"left","reactionTime":749,"correctAnswer":true},{"block":16,"image":"d7ori_1_right_9.0_jit11_0.9.jpg","trial":212,"didAnswer":true,"imgDirection":"right","reactionTime":733,"correctAnswer":false},{"block":16,"image":"d7ori_5_right_9.0_jit11_0.9.jpg","trial":213,"didAnswer":true,"imgDirection":"right","reactionTime":1541,"correctAnswer":false},{"block":16,"image":"d7ori_16_left_9.0_jit11_0.9.jpg","trial":214,"didAnswer":true,"imgDirection":"left","reactionTime":927,"correctAnswer":true},{"block":16,"image":"d7ori_17_right_9.0_jit11_0.9.jpg","trial":215,"didAnswer":true,"imgDirection":"right","reactionTime":886,"correctAnswer":false},{"block":16,"image":"d7ori_20_left_9.0_jit11_0.9.jpg","trial":216,"didAnswer":true,"imgDirection":"left","reactionTime":518,"correctAnswer":true},{"block":16,"image":"d7ori_4_left_9.0_jit11_0.9.jpg","trial":217,"didAnswer":true,"imgDirection":"left","reactionTime":838,"correctAnswer":true},{"block":16,"image":"lf12Left0NoB_low.jpg","trial":218,"didAnswer":true,"imgDirection":"left","reactionTime":693,"correctAnswer":true},{"block":16,"image":"d7ori_21_right_9.0_jit11_0.9.jpg","trial":219,"didAnswer":true,"imgDirection":"right","reactionTime":846,"correctAnswer":true},{"block":16,"image":"d7ori_24_left_9.0_jit11_0.9.jpg","trial":220,"didAnswer":true,"imgDirection":"left","reactionTime":1114,"correctAnswer":true},{"block":16,"image":"d7ori_13_right_9.0_jit11_0.9.jpg","trial":221,"didAnswer":true,"imgDirection":"right","reactionTime":643,"correctAnswer":false},{"block":16,"image":"d7ori_8_left_9.0_jit11_0.9.jpg","trial":222,"didAnswer":true,"imgDirection":"left","reactionTime":671,"correctAnswer":true},{"block":16,"image":"lf3Left3_low.jpg","trial":223,"didAnswer":true,"imgDirection":"left","reactionTime":532,"correctAnswer":true},{"block":16,"image":"d7ori_9_right_9.0_jit11_0.9.jpg","trial":224,"didAnswer":true,"imgDirection":"right","reactionTime":686,"correctAnswer":false},{"block":17,"image":"d7ori_14_right_9.0_jit13_0.9.jpg","trial":225,"didAnswer":true,"imgDirection":"right","reactionTime":1458,"correctAnswer":true},{"block":17,"image":"d5Right5_low.jpg","trial":226,"didAnswer":true,"imgDirection":"right","reactionTime":572,"correctAnswer":true},{"block":17,"image":"d7ori_22_right_9.0_jit13_0.9.jpg","trial":227,"didAnswer":true,"imgDirection":"right","reactionTime":773,"correctAnswer":true},{"block":17,"image":"d7ori_15_left_9.0_jit13_0.9.jpg","trial":228,"didAnswer":true,"imgDirection":"left","reactionTime":653,"correctAnswer":false},{"block":17,"image":"d7ori_11_left_9.0_jit13_0.9.jpg","trial":229,"didAnswer":true,"imgDirection":"left","reactionTime":469,"correctAnswer":false},{"block":17,"image":"d7ori_3_left_9.0_jit13_0.9.jpg","trial":230,"didAnswer":true,"imgDirection":"left","reactionTime":398,"correctAnswer":true},{"block":17,"image":"d16Right6NoB_low.jpg","trial":231,"didAnswer":true,"imgDirection":"right","reactionTime":747,"correctAnswer":true},{"block":17,"image":"d7ori_19_left_9.0_jit13_0.9.jpg","trial":232,"didAnswer":true,"imgDirection":"left","reactionTime":516,"correctAnswer":false},{"block":17,"image":"d7ori_7_left_9.0_jit13_0.9.jpg","trial":233,"didAnswer":true,"imgDirection":"left","reactionTime":598,"correctAnswer":true},{"block":17,"image":"d7ori_6_right_9.0_jit13_0.9.jpg","trial":234,"didAnswer":true,"imgDirection":"right","reactionTime":325,"correctAnswer":false},{"block":17,"image":"d7ori_2_right_9.0_jit13_0.9.jpg","trial":235,"didAnswer":true,"imgDirection":"right","reactionTime":316,"correctAnswer":false},{"block":17,"image":"d7ori_18_right_9.0_jit13_0.9.jpg","trial":236,"didAnswer":true,"imgDirection":"right","reactionTime":526,"correctAnswer":false},{"block":17,"image":"d7ori_23_left_9.0_jit13_0.9.jpg","trial":237,"didAnswer":true,"imgDirection":"left","reactionTime":436,"correctAnswer":true},{"block":17,"image":"d7ori_10_right_9.0_jit13_0.9.jpg","trial":238,"didAnswer":true,"imgDirection":"right","reactionTime":685,"correctAnswer":false},{"block":18,"image":"d7ori_2_right_9.0_jit15_0.9.jpg","trial":239,"didAnswer":true,"imgDirection":"right","reactionTime":716,"correctAnswer":false},{"block":18,"image":"d7ori_22_right_9.0_jit15_0.9.jpg","trial":240,"didAnswer":true,"imgDirection":"right","reactionTime":451,"correctAnswer":false},{"block":18,"image":"d7ori_23_left_9.0_jit15_0.9.jpg","trial":241,"didAnswer":true,"imgDirection":"left","reactionTime":513,"correctAnswer":true},{"block":18,"image":"lf17Left5NoB_low.jpg","trial":242,"didAnswer":true,"imgDirection":"left","reactionTime":354,"correctAnswer":true},{"block":18,"image":"d7ori_19_left_9.0_jit15_0.9.jpg","trial":243,"didAnswer":true,"imgDirection":"left","reactionTime":48,"correctAnswer":true},{"block":18,"image":"d7ori_11_left_9.0_jit15_0.9.jpg","trial":244,"didAnswer":true,"imgDirection":"left","reactionTime":1348,"correctAnswer":true},{"block":18,"image":"d7ori_6_right_9.0_jit15_0.9.jpg","trial":245,"didAnswer":true,"imgDirection":"right","reactionTime":317,"correctAnswer":false},{"block":18,"image":"d7ori_15_left_9.0_jit15_0.9.jpg","trial":246,"didAnswer":true,"imgDirection":"left","reactionTime":363,"correctAnswer":true},{"block":18,"image":"d7ori_14_right_9.0_jit15_0.9.jpg","trial":247,"didAnswer":false,"imgDirection":"right","reactionTime":1999,"correctAnswer":null},{"block":18,"image":"d7ori_7_left_9.0_jit15_0.9.jpg","trial":248,"didAnswer":true,"imgDirection":"left","reactionTime":354,"correctAnswer":true},{"block":18,"image":"d8Right8_low.jpg","trial":249,"didAnswer":true,"imgDirection":"right","reactionTime":414,"correctAnswer":false},{"block":18,"image":"d7ori_10_right_9.0_jit15_0.9.jpg","trial":250,"didAnswer":true,"imgDirection":"right","reactionTime":182,"correctAnswer":false},{"block":18,"image":"d7ori_3_left_9.0_jit15_0.9.jpg","trial":251,"didAnswer":true,"imgDirection":"left","reactionTime":661,"correctAnswer":true},{"block":18,"image":"d7ori_18_right_9.0_jit15_0.9.jpg","trial":252,"didAnswer":true,"imgDirection":"right","reactionTime":1124,"correctAnswer":false},{"block":19,"image":"d0ori_right_9.0_0.9_20.jpg","trial":253,"didAnswer":true,"imgDirection":"right","reactionTime":771,"correctAnswer":false},{"block":19,"image":"d0ori_right_9.0_0.9_18.jpg","trial":254,"didAnswer":false,"imgDirection":"right","reactionTime":2000,"correctAnswer":null},{"block":19,"image":"d0ori_right_9.0_0.9_23.jpg","trial":255,"didAnswer":true,"imgDirection":"right","reactionTime":1468,"correctAnswer":false},{"block":19,"image":"lf0Left0_low.jpg","trial":256,"didAnswer":true,"imgDirection":"left","reactionTime":408,"correctAnswer":true},{"block":19,"image":"d0ori_left_9.0_0.9_23.jpg","trial":257,"didAnswer":false,"imgDirection":"left","reactionTime":1999,"correctAnswer":null},{"block":19,"image":"d0ori_right_9.0_0.9_22.jpg","trial":258,"didAnswer":true,"imgDirection":"right","reactionTime":1368,"correctAnswer":false},{"block":19,"image":"d0ori_left_9.0_0.9_20.jpg","trial":259,"didAnswer":true,"imgDirection":"left","reactionTime":573,"correctAnswer":true},{"block":19,"image":"d0ori_right_9.0_0.9_21.jpg","trial":260,"didAnswer":false,"imgDirection":"right","reactionTime":1999,"correctAnswer":null},{"block":19,"image":"d0ori_left_9.0_0.9_18.jpg","trial":261,"didAnswer":false,"imgDirection":"left","reactionTime":1999,"correctAnswer":null},{"block":19,"image":"d13Right3NoB_low.jpg","trial":262,"didAnswer":false,"imgDirection":"right","reactionTime":2000,"correctAnswer":null},{"block":19,"image":"d0ori_left_9.0_0.9_19.jpg","trial":263,"didAnswer":true,"imgDirection":"left","reactionTime":935,"correctAnswer":true},{"block":19,"image":"d0ori_right_9.0_0.9_19.jpg","trial":264,"didAnswer":false,"imgDirection":"right","reactionTime":2000,"correctAnswer":null},{"block":19,"image":"d0ori_left_9.0_0.9_22.jpg","trial":265,"didAnswer":true,"imgDirection":"left","reactionTime":1083,"correctAnswer":true},{"block":19,"image":"d0ori_left_9.0_0.9_21.jpg","trial":266,"didAnswer":false,"imgDirection":"left","reactionTime":1999,"correctAnswer":null},{"block":20,"image":"d7ori_4_left_9.0_jit7_0.9.jpg","trial":267,"didAnswer":true,"imgDirection":"left","reactionTime":952,"correctAnswer":true},{"block":20,"image":"d7ori_24_left_9.0_jit7_0.9.jpg","trial":268,"didAnswer":true,"imgDirection":"left","reactionTime":550,"correctAnswer":true},{"block":20,"image":"d7ori_16_left_9.0_jit7_0.9.jpg","trial":269,"didAnswer":true,"imgDirection":"left","reactionTime":676,"correctAnswer":true},{"block":20,"image":"d7ori_1_right_9.0_jit7_0.9.jpg","trial":270,"didAnswer":true,"imgDirection":"right","reactionTime":804,"correctAnswer":false},{"block":20,"image":"lf1Left1_low.jpg","trial":271,"didAnswer":true,"imgDirection":"left","reactionTime":549,"correctAnswer":true},{"block":20,"image":"d22Right10NoB_low.jpg","trial":272,"didAnswer":true,"imgDirection":"right","reactionTime":426,"correctAnswer":true},{"block":20,"image":"d7ori_12_left_9.0_jit7_0.9.jpg","trial":273,"didAnswer":true,"imgDirection":"left","reactionTime":709,"correctAnswer":true},{"block":20,"image":"d7ori_5_right_9.0_jit7_0.9.jpg","trial":274,"didAnswer":true,"imgDirection":"right","reactionTime":1292,"correctAnswer":false},{"block":20,"image":"d7ori_17_right_9.0_jit7_0.9.jpg","trial":275,"didAnswer":true,"imgDirection":"right","reactionTime":286,"correctAnswer":true},{"block":20,"image":"d7ori_8_left_9.0_jit7_0.9.jpg","trial":276,"didAnswer":true,"imgDirection":"left","reactionTime":526,"correctAnswer":true},{"block":20,"image":"d7ori_9_right_9.0_jit7_0.9.jpg","trial":277,"didAnswer":true,"imgDirection":"right","reactionTime":462,"correctAnswer":false},{"block":20,"image":"d7ori_20_left_9.0_jit7_0.9.jpg","trial":278,"didAnswer":true,"imgDirection":"left","reactionTime":318,"correctAnswer":true},{"block":20,"image":"d7ori_13_right_9.0_jit7_0.9.jpg","trial":279,"didAnswer":true,"imgDirection":"right","reactionTime":398,"correctAnswer":false},{"block":20,"image":"d7ori_21_right_9.0_jit7_0.9.jpg","trial":280,"didAnswer":true,"imgDirection":"right","reactionTime":950,"correctAnswer":true},{"block":21,"image":"left-d7ori_20_left_9.0_jit9_0.9.jpg","trial":281,"didAnswer":true,"imgDirection":"left","reactionTime":475,"correctAnswer":false},{"block":21,"image":"left-d7ori_12_left_9.0_jit9_0.9.jpg","trial":282,"didAnswer":true,"imgDirection":"left","reactionTime":374,"correctAnswer":false},{"block":21,"image":"right-d7ori_9_right_9.0_jit9_0.9.jpg","trial":283,"didAnswer":true,"imgDirection":"right","reactionTime":334,"correctAnswer":true},{"block":21,"image":"right-d7ori_17_right_9.0_jit9_0.9.jpg","trial":284,"didAnswer":true,"imgDirection":"right","reactionTime":350,"correctAnswer":true},{"block":21,"image":"left-d7ori_4_left_9.0_jit9_0.9.jpg","trial":285,"didAnswer":true,"imgDirection":"left","reactionTime":309,"correctAnswer":false},{"block":21,"image":"left-d7ori_8_left_9.0_jit9_0.9.jpg","trial":286,"didAnswer":true,"imgDirection":"left","reactionTime":236,"correctAnswer":false},{"block":21,"image":"right-d7ori_21_right_9.0_jit9_0.9.jpg","trial":287,"didAnswer":true,"imgDirection":"right","reactionTime":339,"correctAnswer":true},{"block":21,"image":"left-d7ori_24_left_9.0_jit9_0.9.jpg","trial":288,"didAnswer":true,"imgDirection":"left","reactionTime":238,"correctAnswer":false},{"block":21,"image":"right-d7ori_13_right_9.0_jit9_0.9.jpg","trial":289,"didAnswer":true,"imgDirection":"right","reactionTime":452,"correctAnswer":false},{"block":21,"image":"d9Right9_low.jpg","trial":290,"didAnswer":true,"imgDirection":"right","reactionTime":316,"correctAnswer":true},{"block":21,"image":"right-d7ori_1_right_9.0_jit9_0.9.jpg","trial":291,"didAnswer":true,"imgDirection":"right","reactionTime":318,"correctAnswer":true},{"block":21,"image":"right-d7ori_5_right_9.0_jit9_0.9.jpg","trial":292,"didAnswer":true,"imgDirection":"right","reactionTime":308,"correctAnswer":true},{"block":21,"image":"left-d7ori_16_left_9.0_jit9_0.9.jpg","trial":293,"didAnswer":true,"imgDirection":"left","reactionTime":237,"correctAnswer":false},{"block":21,"image":"lf14Left2NoB_low.jpg","trial":294,"didAnswer":true,"imgDirection":"left","reactionTime":277,"correctAnswer":true},{"block":22,"image":"d7ori_15_left_9.0_jit11_0.9.jpg","trial":295,"didAnswer":true,"imgDirection":"left","reactionTime":1340,"correctAnswer":true},{"block":22,"image":"d7ori_23_left_9.0_jit11_0.9.jpg","trial":296,"didAnswer":true,"imgDirection":"left","reactionTime":157,"correctAnswer":true},{"block":22,"image":"d7ori_6_right_9.0_jit11_0.9.jpg","trial":297,"didAnswer":true,"imgDirection":"right","reactionTime":1637,"correctAnswer":false},{"block":22,"image":"d7ori_19_left_9.0_jit11_0.9.jpg","trial":298,"didAnswer":true,"imgDirection":"left","reactionTime":1325,"correctAnswer":true},{"block":22,"image":"d7ori_22_right_9.0_jit11_0.9.jpg","trial":299,"didAnswer":true,"imgDirection":"right","reactionTime":523,"correctAnswer":false},{"block":22,"image":"d7ori_18_right_9.0_jit11_0.9.jpg","trial":300,"didAnswer":false,"imgDirection":"right","reactionTime":2000,"correctAnswer":null},{"block":22,"image":"lf19Left7NoB_low.jpg","trial":301,"didAnswer":true,"imgDirection":"left","reactionTime":300,"correctAnswer":false},{"block":22,"image":"d7ori_7_left_9.0_jit11_0.9.jpg","trial":302,"didAnswer":false,"imgDirection":"left","reactionTime":2000,"correctAnswer":null},{"block":22,"image":"d7ori_14_right_9.0_jit11_0.9.jpg","trial":303,"didAnswer":true,"imgDirection":"right","reactionTime":512,"correctAnswer":true},{"block":22,"image":"d7ori_11_left_9.0_jit11_0.9.jpg","trial":304,"didAnswer":true,"imgDirection":"left","reactionTime":1594,"correctAnswer":true},{"block":22,"image":"d7ori_2_right_9.0_jit11_0.9.jpg","trial":305,"didAnswer":false,"imgDirection":"right","reactionTime":1999,"correctAnswer":null},{"block":22,"image":"d7ori_10_right_9.0_jit11_0.9.jpg","trial":306,"didAnswer":true,"imgDirection":"right","reactionTime":666,"correctAnswer":false},{"block":22,"image":"d7ori_3_left_9.0_jit11_0.9.jpg","trial":307,"didAnswer":true,"imgDirection":"left","reactionTime":1220,"correctAnswer":true},{"block":22,"image":"lf8Left8_low.jpg","trial":308,"didAnswer":true,"imgDirection":"left","reactionTime":177,"correctAnswer":true},{"block":23,"image":"d7ori_4_left_9.0_jit13_0.9.jpg","trial":309,"didAnswer":true,"imgDirection":"left","reactionTime":259,"correctAnswer":true},{"block":23,"image":"d7ori_5_right_9.0_jit13_0.9.jpg","trial":310,"didAnswer":true,"imgDirection":"right","reactionTime":909,"correctAnswer":false},{"block":23,"image":"d7ori_9_right_9.0_jit13_0.9.jpg","trial":311,"didAnswer":true,"imgDirection":"right","reactionTime":157,"correctAnswer":false},{"block":23,"image":"d7ori_20_left_9.0_jit13_0.9.jpg","trial":312,"didAnswer":true,"imgDirection":"left","reactionTime":693,"correctAnswer":true},{"block":23,"image":"d18Right8NoB_low.jpg","trial":313,"didAnswer":true,"imgDirection":"right","reactionTime":493,"correctAnswer":true},{"block":23,"image":"d7ori_8_left_9.0_jit13_0.9.jpg","trial":314,"didAnswer":true,"imgDirection":"left","reactionTime":566,"correctAnswer":false},{"block":23,"image":"d7Right7_low.jpg","trial":315,"didAnswer":true,"imgDirection":"right","reactionTime":573,"correctAnswer":true},{"block":23,"image":"d7ori_24_left_9.0_jit13_0.9.jpg","trial":316,"didAnswer":true,"imgDirection":"left","reactionTime":262,"correctAnswer":false},{"block":23,"image":"d7ori_13_right_9.0_jit13_0.9.jpg","trial":317,"didAnswer":true,"imgDirection":"right","reactionTime":1150,"correctAnswer":false},{"block":23,"image":"d7ori_17_right_9.0_jit13_0.9.jpg","trial":318,"didAnswer":true,"imgDirection":"right","reactionTime":540,"correctAnswer":true},{"block":23,"image":"d7ori_12_left_9.0_jit13_0.9.jpg","trial":319,"didAnswer":true,"imgDirection":"left","reactionTime":477,"correctAnswer":false},{"block":23,"image":"d7ori_16_left_9.0_jit13_0.9.jpg","trial":320,"didAnswer":true,"imgDirection":"left","reactionTime":509,"correctAnswer":false},{"block":23,"image":"d7ori_21_right_9.0_jit13_0.9.jpg","trial":321,"didAnswer":true,"imgDirection":"right","reactionTime":397,"correctAnswer":true},{"block":23,"image":"d7ori_1_right_9.0_jit13_0.9.jpg","trial":322,"didAnswer":true,"imgDirection":"right","reactionTime":1661,"correctAnswer":true},{"block":24,"image":"d7ori_1_right_9.0_jit15_0.9.jpg","trial":323,"didAnswer":true,"imgDirection":"right","reactionTime":467,"correctAnswer":false},{"block":24,"image":"d1Right1_low.jpg","trial":324,"didAnswer":true,"imgDirection":"right","reactionTime":411,"correctAnswer":false},{"block":24,"image":"lf20Left8NoB_low.jpg","trial":325,"didAnswer":true,"imgDirection":"left","reactionTime":505,"correctAnswer":false},{"block":24,"image":"d7ori_5_right_9.0_jit15_0.9.jpg","trial":326,"didAnswer":true,"imgDirection":"right","reactionTime":521,"correctAnswer":true},{"block":24,"image":"d7ori_16_left_9.0_jit15_0.9.jpg","trial":327,"didAnswer":true,"imgDirection":"left","reactionTime":374,"correctAnswer":false},{"block":24,"image":"d7ori_13_right_9.0_jit15_0.9.jpg","trial":328,"didAnswer":false,"imgDirection":"right","reactionTime":1999,"correctAnswer":null},{"block":24,"image":"d7ori_24_left_9.0_jit15_0.9.jpg","trial":329,"didAnswer":true,"imgDirection":"left","reactionTime":1016,"correctAnswer":true},{"block":24,"image":"d7ori_21_right_9.0_jit15_0.9.jpg","trial":330,"didAnswer":true,"imgDirection":"right","reactionTime":420,"correctAnswer":true},{"block":24,"image":"d7ori_9_right_9.0_jit15_0.9.jpg","trial":331,"didAnswer":true,"imgDirection":"right","reactionTime":310,"correctAnswer":false},{"block":24,"image":"d7ori_20_left_9.0_jit15_0.9.jpg","trial":332,"didAnswer":true,"imgDirection":"left","reactionTime":1949,"correctAnswer":true},{"block":24,"image":"d7ori_17_right_9.0_jit15_0.9.jpg","trial":333,"didAnswer":true,"imgDirection":"right","reactionTime":471,"correctAnswer":true},{"block":24,"image":"d7ori_4_left_9.0_jit15_0.9.jpg","trial":334,"didAnswer":true,"imgDirection":"left","reactionTime":1349,"correctAnswer":true},{"block":24,"image":"d7ori_8_left_9.0_jit15_0.9.jpg","trial":335,"didAnswer":true,"imgDirection":"left","reactionTime":348,"correctAnswer":false},{"block":24,"image":"d7ori_12_left_9.0_jit15_0.9.jpg","trial":336,"didAnswer":true,"imgDirection":"left","reactionTime":478,"correctAnswer":true}],"browserInfo":{"windowInfo":{"width":1920,"height":969},"navigatorInfo":{"oscpu":"Windows NT 6.1; WOW64","onLine":true,"vendor":"","appName":"Netscape","buildID":"20170518000419","plugins":{"0":{"0":{},"1":{}}},"product":"Gecko","language":"cs","platform":"Win32","languages":["cs","en-US","en"],"mimeTypes":{"0":{},"1":{}},"userAgent":"Mozilla/5.0 (Windows NT 6.1; WOW64; rv:53.0) Gecko/20100101 Firefox/53.0","vendorSub":"","appVersion":"5.0 (Windows)","doNotTrack":"unspecified","productSub":"20100101","appCodeName":"Mozilla","geolocation":{},"permissions":{},"mediaDevices":{},"cookieEnabled":true,"serviceWorker":{"controller":null},"hardwareConcurrency":6}}}