{"id":23,"finished":true,"user":"martin","test":"Jovi4","started":null,"ended":null,"data":[{"block":1,"image":"d0ori_right_9.0_0.9_5.jpg","trial":1,"didAnswer":true,"imgDirection":"right","reactionTime":728,"correctAnswer":true},{"block":1,"image":"d0ori_right_9.0_0.9_3.jpg","trial":2,"didAnswer":true,"imgDirection":"right","reactionTime":624,"correctAnswer":true},{"block":1,"image":"d0ori_left_9.0_0.9_4.jpg","trial":3,"didAnswer":true,"imgDirection":"left","reactionTime":1008,"correctAnswer":false},{"block":1,"image":"d0ori_left_9.0_0.9_3.jpg","trial":4,"didAnswer":true,"imgDirection":"left","reactionTime":546,"correctAnswer":true},{"block":1,"image":"d0ori_right_9.0_0.9_2.jpg","trial":5,"didAnswer":true,"imgDirection":"right","reactionTime":625,"correctAnswer":true},{"block":1,"image":"d14Right4NoB_low.jpg","trial":6,"didAnswer":true,"imgDirection":"right","reactionTime":512,"correctAnswer":true},{"block":1,"image":"d0ori_left_9.0_0.9_1.jpg","trial":7,"didAnswer":true,"imgDirection":"left","reactionTime":549,"correctAnswer":true},{"block":1,"image":"d0ori_left_9.0_0.9_2.jpg","trial":8,"didAnswer":true,"imgDirection":"left","reactionTime":543,"correctAnswer":true},{"block":1,"image":"d0ori_left_9.0_0.9_5.jpg","trial":9,"didAnswer":true,"imgDirection":"left","reactionTime":632,"correctAnswer":true},{"block":1,"image":"d6Right6_low.jpg","trial":10,"didAnswer":true,"imgDirection":"right","reactionTime":577,"correctAnswer":true},{"block":1,"image":"d0ori_right_9.0_0.9_1.jpg","trial":11,"didAnswer":true,"imgDirection":"right","reactionTime":768,"correctAnswer":true},{"block":1,"image":"d0ori_right_9.0_0.9_4.jpg","trial":12,"didAnswer":true,"imgDirection":"right","reactionTime":606,"correctAnswer":true},{"block":1,"image":"d0ori_left_9.0_0.9_0.jpg","trial":13,"didAnswer":true,"imgDirection":"left","reactionTime":814,"correctAnswer":true},{"block":1,"image":"d0ori_right_9.0_0.9_0.jpg","trial":14,"didAnswer":true,"imgDirection":"right","reactionTime":768,"correctAnswer":true},{"block":2,"image":"d7ori_21_left_9.0_jit7_0.9.jpg","trial":15,"didAnswer":true,"imgDirection":"left","reactionTime":1005,"correctAnswer":true},{"block":2,"image":"d7ori_24_right_9.0_jit7_0.9.jpg","trial":16,"didAnswer":true,"imgDirection":"right","reactionTime":655,"correctAnswer":false},{"block":2,"image":"d7ori_8_right_9.0_jit7_0.9.jpg","trial":17,"didAnswer":true,"imgDirection":"right","reactionTime":656,"correctAnswer":true},{"block":2,"image":"d7ori_9_left_9.0_jit7_0.9.jpg","trial":18,"didAnswer":true,"imgDirection":"left","reactionTime":625,"correctAnswer":true},{"block":2,"image":"lf18Left6NoB_low.jpg","trial":19,"didAnswer":true,"imgDirection":"left","reactionTime":512,"correctAnswer":true},{"block":2,"image":"d7ori_17_left_9.0_jit7_0.9.jpg","trial":20,"didAnswer":true,"imgDirection":"left","reactionTime":599,"correctAnswer":false},{"block":2,"image":"d7ori_20_right_9.0_jit7_0.9.jpg","trial":21,"didAnswer":true,"imgDirection":"right","reactionTime":717,"correctAnswer":true},{"block":2,"image":"d7ori_4_right_9.0_jit7_0.9.jpg","trial":22,"didAnswer":true,"imgDirection":"right","reactionTime":715,"correctAnswer":true},{"block":2,"image":"d7ori_1_left_9.0_jit7_0.9.jpg","trial":23,"didAnswer":true,"imgDirection":"left","reactionTime":575,"correctAnswer":true},{"block":2,"image":"lf5Left5_low.jpg","trial":24,"didAnswer":true,"imgDirection":"left","reactionTime":533,"correctAnswer":true},{"block":2,"image":"d7ori_5_left_9.0_jit7_0.9.jpg","trial":25,"didAnswer":true,"imgDirection":"left","reactionTime":569,"correctAnswer":true},{"block":2,"image":"d7ori_13_left_9.0_jit7_0.9.jpg","trial":26,"didAnswer":true,"imgDirection":"left","reactionTime":760,"correctAnswer":true},{"block":2,"image":"d7ori_12_right_9.0_jit7_0.9.jpg","trial":27,"didAnswer":true,"imgDirection":"right","reactionTime":573,"correctAnswer":true},{"block":2,"image":"d7ori_16_right_9.0_jit7_0.9.jpg","trial":28,"didAnswer":true,"imgDirection":"right","reactionTime":673,"correctAnswer":true},{"block":3,"image":"left-d7ori_1_left_9.0_jit9_0.9.jpg","trial":29,"didAnswer":true,"imgDirection":"left","reactionTime":1408,"correctAnswer":true},{"block":3,"image":"left-d7ori_21_left_9.0_jit9_0.9.jpg","trial":30,"didAnswer":true,"imgDirection":"left","reactionTime":664,"correctAnswer":true},{"block":3,"image":"right-d7ori_4_right_9.0_jit9_0.9.jpg","trial":31,"didAnswer":true,"imgDirection":"right","reactionTime":684,"correctAnswer":true},{"block":3,"image":"right-d7ori_16_right_9.0_jit9_0.9.jpg","trial":32,"didAnswer":true,"imgDirection":"right","reactionTime":1047,"correctAnswer":true},{"block":3,"image":"right-d7ori_20_right_9.0_jit9_0.9.jpg","trial":33,"didAnswer":true,"imgDirection":"right","reactionTime":1277,"correctAnswer":true},{"block":3,"image":"right-d7ori_8_right_9.0_jit9_0.9.jpg","trial":34,"didAnswer":true,"imgDirection":"right","reactionTime":713,"correctAnswer":true},{"block":3,"image":"left-d7ori_5_left_9.0_jit9_0.9.jpg","trial":35,"didAnswer":true,"imgDirection":"left","reactionTime":782,"correctAnswer":true},{"block":3,"image":"left-d7ori_13_left_9.0_jit9_0.9.jpg","trial":36,"didAnswer":true,"imgDirection":"left","reactionTime":820,"correctAnswer":true},{"block":3,"image":"right-d7ori_12_right_9.0_jit9_0.9.jpg","trial":37,"didAnswer":true,"imgDirection":"right","reactionTime":916,"correctAnswer":true},{"block":3,"image":"lf2Left2_low.jpg","trial":38,"didAnswer":true,"imgDirection":"left","reactionTime":535,"correctAnswer":true},{"block":3,"image":"lf23Left11NoB_low.jpg","trial":39,"didAnswer":true,"imgDirection":"left","reactionTime":565,"correctAnswer":true},{"block":3,"image":"left-d7ori_17_left_9.0_jit9_0.9.jpg","trial":40,"didAnswer":true,"imgDirection":"left","reactionTime":919,"correctAnswer":true},{"block":3,"image":"left-d7ori_9_left_9.0_jit9_0.9.jpg","trial":41,"didAnswer":true,"imgDirection":"left","reactionTime":1081,"correctAnswer":true},{"block":3,"image":"right-d7ori_24_right_9.0_jit9_0.9.jpg","trial":42,"didAnswer":true,"imgDirection":"right","reactionTime":647,"correctAnswer":true},{"block":4,"image":"d7ori_7_right_9.0_jit11_0.9.jpg","trial":43,"didAnswer":true,"imgDirection":"right","reactionTime":971,"correctAnswer":false},{"block":4,"image":"d7ori_22_left_9.0_jit11_0.9.jpg","trial":44,"didAnswer":true,"imgDirection":"left","reactionTime":752,"correctAnswer":true},{"block":4,"image":"d7ori_3_right_9.0_jit11_0.9.jpg","trial":45,"didAnswer":true,"imgDirection":"right","reactionTime":736,"correctAnswer":true},{"block":4,"image":"d7ori_15_right_9.0_jit11_0.9.jpg","trial":46,"didAnswer":true,"imgDirection":"right","reactionTime":642,"correctAnswer":true},{"block":4,"image":"d7ori_14_left_9.0_jit11_0.9.jpg","trial":47,"didAnswer":true,"imgDirection":"left","reactionTime":1229,"correctAnswer":true},{"block":4,"image":"d7ori_18_left_9.0_jit11_0.9.jpg","trial":48,"didAnswer":true,"imgDirection":"left","reactionTime":567,"correctAnswer":true},{"block":4,"image":"d10Right0NoB_low.jpg","trial":49,"didAnswer":true,"imgDirection":"right","reactionTime":645,"correctAnswer":true},{"block":4,"image":"lf10Left10_low.jpg","trial":50,"didAnswer":true,"imgDirection":"left","reactionTime":497,"correctAnswer":true},{"block":4,"image":"d7ori_11_right_9.0_jit11_0.9.jpg","trial":51,"didAnswer":true,"imgDirection":"right","reactionTime":620,"correctAnswer":true},{"block":4,"image":"d7ori_10_left_9.0_jit11_0.9.jpg","trial":52,"didAnswer":true,"imgDirection":"left","reactionTime":1920,"correctAnswer":true},{"block":4,"image":"d7ori_19_right_9.0_jit11_0.9.jpg","trial":53,"didAnswer":true,"imgDirection":"right","reactionTime":1097,"correctAnswer":true},{"block":4,"image":"d7ori_6_left_9.0_jit11_0.9.jpg","trial":54,"didAnswer":true,"imgDirection":"left","reactionTime":618,"correctAnswer":false},{"block":4,"image":"d7ori_23_right_9.0_jit11_0.9.jpg","trial":55,"didAnswer":true,"imgDirection":"right","reactionTime":1207,"correctAnswer":true},{"block":4,"image":"d7ori_2_left_9.0_jit11_0.9.jpg","trial":56,"didAnswer":true,"imgDirection":"left","reactionTime":660,"correctAnswer":true},{"block":5,"image":"d7ori_1_left_9.0_jit13_0.9.jpg","trial":57,"didAnswer":true,"imgDirection":"left","reactionTime":1400,"correctAnswer":true},{"block":5,"image":"lf13Left1NoB_low.jpg","trial":58,"didAnswer":true,"imgDirection":"left","reactionTime":517,"correctAnswer":true},{"block":5,"image":"d7ori_8_right_9.0_jit13_0.9.jpg","trial":59,"didAnswer":true,"imgDirection":"right","reactionTime":747,"correctAnswer":true},{"block":5,"image":"d7ori_21_left_9.0_jit13_0.9.jpg","trial":60,"didAnswer":true,"imgDirection":"left","reactionTime":742,"correctAnswer":true},{"block":5,"image":"d7ori_12_right_9.0_jit13_0.9.jpg","trial":61,"didAnswer":true,"imgDirection":"right","reactionTime":992,"correctAnswer":true},{"block":5,"image":"d7ori_20_right_9.0_jit13_0.9.jpg","trial":62,"didAnswer":true,"imgDirection":"right","reactionTime":489,"correctAnswer":true},{"block":5,"image":"d7ori_16_right_9.0_jit13_0.9.jpg","trial":63,"didAnswer":true,"imgDirection":"right","reactionTime":617,"correctAnswer":true},{"block":5,"image":"d7ori_9_left_9.0_jit13_0.9.jpg","trial":64,"didAnswer":true,"imgDirection":"left","reactionTime":1133,"correctAnswer":false},{"block":5,"image":"d7ori_24_right_9.0_jit13_0.9.jpg","trial":65,"didAnswer":true,"imgDirection":"right","reactionTime":735,"correctAnswer":true},{"block":5,"image":"d7ori_5_left_9.0_jit13_0.9.jpg","trial":66,"didAnswer":true,"imgDirection":"left","reactionTime":1064,"correctAnswer":false},{"block":5,"image":"d7ori_13_left_9.0_jit13_0.9.jpg","trial":67,"didAnswer":true,"imgDirection":"left","reactionTime":962,"correctAnswer":true},{"block":5,"image":"d7ori_17_left_9.0_jit13_0.9.jpg","trial":68,"didAnswer":true,"imgDirection":"left","reactionTime":1214,"correctAnswer":true},{"block":5,"image":"d4Right4_low.jpg","trial":69,"didAnswer":true,"imgDirection":"right","reactionTime":529,"correctAnswer":true},{"block":5,"image":"d7ori_4_right_9.0_jit13_0.9.jpg","trial":70,"didAnswer":true,"imgDirection":"right","reactionTime":661,"correctAnswer":true},{"block":6,"image":"d7ori_13_left_9.0_jit15_0.9.jpg","trial":71,"didAnswer":true,"imgDirection":"left","reactionTime":660,"correctAnswer":true},{"block":6,"image":"d7ori_8_right_9.0_jit15_0.9.jpg","trial":72,"didAnswer":true,"imgDirection":"right","reactionTime":1711,"correctAnswer":false},{"block":6,"image":"d7ori_24_right_9.0_jit15_0.9.jpg","trial":73,"didAnswer":true,"imgDirection":"right","reactionTime":1022,"correctAnswer":true},{"block":6,"image":"d7ori_21_left_9.0_jit15_0.9.jpg","trial":74,"didAnswer":true,"imgDirection":"left","reactionTime":1853,"correctAnswer":false},{"block":6,"image":"d7ori_1_left_9.0_jit15_0.9.jpg","trial":75,"didAnswer":true,"imgDirection":"left","reactionTime":1013,"correctAnswer":true},{"block":6,"image":"lf6Left6_low.jpg","trial":76,"didAnswer":true,"imgDirection":"left","reactionTime":659,"correctAnswer":true},{"block":6,"image":"d7ori_17_left_9.0_jit15_0.9.jpg","trial":77,"didAnswer":true,"imgDirection":"left","reactionTime":1500,"correctAnswer":false},{"block":6,"image":"d7ori_20_right_9.0_jit15_0.9.jpg","trial":78,"didAnswer":true,"imgDirection":"right","reactionTime":856,"correctAnswer":true},{"block":6,"image":"d7ori_9_left_9.0_jit15_0.9.jpg","trial":79,"didAnswer":true,"imgDirection":"left","reactionTime":1282,"correctAnswer":false},{"block":6,"image":"d7ori_12_right_9.0_jit15_0.9.jpg","trial":80,"didAnswer":true,"imgDirection":"right","reactionTime":832,"correctAnswer":true},{"block":6,"image":"d7ori_16_right_9.0_jit15_0.9.jpg","trial":81,"didAnswer":true,"imgDirection":"right","reactionTime":1101,"correctAnswer":true},{"block":6,"image":"d15Right5NoB_low.jpg","trial":82,"didAnswer":true,"imgDirection":"right","reactionTime":506,"correctAnswer":true},{"block":6,"image":"d7ori_5_left_9.0_jit15_0.9.jpg","trial":83,"didAnswer":true,"imgDirection":"left","reactionTime":663,"correctAnswer":true},{"block":6,"image":"d7ori_4_right_9.0_jit15_0.9.jpg","trial":84,"didAnswer":true,"imgDirection":"right","reactionTime":980,"correctAnswer":true},{"block":7,"image":"d0ori_left_9.0_0.9_9.jpg","trial":85,"didAnswer":true,"imgDirection":"left","reactionTime":663,"correctAnswer":true},{"block":7,"image":"d0ori_right_9.0_0.9_8.jpg","trial":86,"didAnswer":true,"imgDirection":"right","reactionTime":578,"correctAnswer":true},{"block":7,"image":"d0ori_right_9.0_0.9_6.jpg","trial":87,"didAnswer":true,"imgDirection":"right","reactionTime":729,"correctAnswer":true},{"block":7,"image":"d0ori_left_9.0_0.9_7.jpg","trial":88,"didAnswer":true,"imgDirection":"left","reactionTime":551,"correctAnswer":true},{"block":7,"image":"d11Right11_low.jpg","trial":89,"didAnswer":true,"imgDirection":"right","reactionTime":475,"correctAnswer":true},{"block":7,"image":"d0ori_left_9.0_0.9_11.jpg","trial":90,"didAnswer":true,"imgDirection":"left","reactionTime":517,"correctAnswer":true},{"block":7,"image":"d0ori_left_9.0_0.9_10.jpg","trial":91,"didAnswer":true,"imgDirection":"left","reactionTime":916,"correctAnswer":true},{"block":7,"image":"d0ori_right_9.0_0.9_9.jpg","trial":92,"didAnswer":true,"imgDirection":"right","reactionTime":671,"correctAnswer":true},{"block":7,"image":"d0ori_right_9.0_0.9_11.jpg","trial":93,"didAnswer":true,"imgDirection":"right","reactionTime":504,"correctAnswer":true},{"block":7,"image":"d0ori_right_9.0_0.9_10.jpg","trial":94,"didAnswer":true,"imgDirection":"right","reactionTime":558,"correctAnswer":true},{"block":7,"image":"d0ori_right_9.0_0.9_7.jpg","trial":95,"didAnswer":true,"imgDirection":"right","reactionTime":562,"correctAnswer":true},{"block":7,"image":"d11Right1NoB_low.jpg","trial":96,"didAnswer":true,"imgDirection":"right","reactionTime":441,"correctAnswer":true},{"block":7,"image":"d0ori_left_9.0_0.9_8.jpg","trial":97,"didAnswer":true,"imgDirection":"left","reactionTime":571,"correctAnswer":true},{"block":7,"image":"d0ori_left_9.0_0.9_6.jpg","trial":98,"didAnswer":true,"imgDirection":"left","reactionTime":676,"correctAnswer":true},{"block":8,"image":"d7ori_22_left_9.0_jit7_0.9.jpg","trial":99,"didAnswer":true,"imgDirection":"left","reactionTime":735,"correctAnswer":true},{"block":8,"image":"d7ori_3_right_9.0_jit7_0.9.jpg","trial":100,"didAnswer":true,"imgDirection":"right","reactionTime":569,"correctAnswer":true},{"block":8,"image":"d7ori_10_left_9.0_jit7_0.9.jpg","trial":101,"didAnswer":true,"imgDirection":"left","reactionTime":649,"correctAnswer":true},{"block":8,"image":"d7ori_19_right_9.0_jit7_0.9.jpg","trial":102,"didAnswer":true,"imgDirection":"right","reactionTime":551,"correctAnswer":true},{"block":8,"image":"d7ori_7_right_9.0_jit7_0.9.jpg","trial":103,"didAnswer":true,"imgDirection":"right","reactionTime":509,"correctAnswer":true},{"block":8,"image":"d7ori_14_left_9.0_jit7_0.9.jpg","trial":104,"didAnswer":true,"imgDirection":"left","reactionTime":564,"correctAnswer":true},{"block":8,"image":"d7ori_18_left_9.0_jit7_0.9.jpg","trial":105,"didAnswer":true,"imgDirection":"left","reactionTime":825,"correctAnswer":true},{"block":8,"image":"d7ori_15_right_9.0_jit7_0.9.jpg","trial":106,"didAnswer":true,"imgDirection":"right","reactionTime":589,"correctAnswer":true},{"block":8,"image":"d2Right2_low.jpg","trial":107,"didAnswer":true,"imgDirection":"right","reactionTime":505,"correctAnswer":true},{"block":8,"image":"d7ori_23_right_9.0_jit7_0.9.jpg","trial":108,"didAnswer":true,"imgDirection":"right","reactionTime":560,"correctAnswer":true},{"block":8,"image":"d7ori_11_right_9.0_jit7_0.9.jpg","trial":109,"didAnswer":true,"imgDirection":"right","reactionTime":655,"correctAnswer":true},{"block":8,"image":"d7ori_2_left_9.0_jit7_0.9.jpg","trial":110,"didAnswer":true,"imgDirection":"left","reactionTime":525,"correctAnswer":true},{"block":8,"image":"d7ori_6_left_9.0_jit7_0.9.jpg","trial":111,"didAnswer":true,"imgDirection":"left","reactionTime":1003,"correctAnswer":true},{"block":8,"image":"lf16Left4NoB_low.jpg","trial":112,"didAnswer":true,"imgDirection":"left","reactionTime":545,"correctAnswer":true},{"block":9,"image":"lf9Left9_low.jpg","trial":113,"didAnswer":true,"imgDirection":"left","reactionTime":486,"correctAnswer":true},{"block":9,"image":"right-d7ori_11_right_9.0_jit9_0.9.jpg","trial":114,"didAnswer":true,"imgDirection":"right","reactionTime":527,"correctAnswer":true},{"block":9,"image":"d19Right9NoB_low.jpg","trial":115,"didAnswer":true,"imgDirection":"right","reactionTime":388,"correctAnswer":true},{"block":9,"image":"left-d7ori_2_left_9.0_jit9_0.9.jpg","trial":116,"didAnswer":true,"imgDirection":"left","reactionTime":539,"correctAnswer":true},{"block":9,"image":"left-d7ori_6_left_9.0_jit9_0.9.jpg","trial":117,"didAnswer":true,"imgDirection":"left","reactionTime":553,"correctAnswer":false},{"block":9,"image":"right-d7ori_3_right_9.0_jit9_0.9.jpg","trial":118,"didAnswer":true,"imgDirection":"right","reactionTime":610,"correctAnswer":true},{"block":9,"image":"right-d7ori_23_right_9.0_jit9_0.9.jpg","trial":119,"didAnswer":true,"imgDirection":"right","reactionTime":676,"correctAnswer":true},{"block":9,"image":"right-d7ori_19_right_9.0_jit9_0.9.jpg","trial":120,"didAnswer":true,"imgDirection":"right","reactionTime":657,"correctAnswer":true},{"block":9,"image":"right-d7ori_7_right_9.0_jit9_0.9.jpg","trial":121,"didAnswer":true,"imgDirection":"right","reactionTime":543,"correctAnswer":true},{"block":9,"image":"left-d7ori_22_left_9.0_jit9_0.9.jpg","trial":122,"didAnswer":true,"imgDirection":"left","reactionTime":828,"correctAnswer":true},{"block":9,"image":"left-d7ori_10_left_9.0_jit9_0.9.jpg","trial":123,"didAnswer":true,"imgDirection":"left","reactionTime":647,"correctAnswer":true},{"block":9,"image":"left-d7ori_18_left_9.0_jit9_0.9.jpg","trial":124,"didAnswer":true,"imgDirection":"left","reactionTime":675,"correctAnswer":true},{"block":9,"image":"right-d7ori_15_right_9.0_jit9_0.9.jpg","trial":125,"didAnswer":true,"imgDirection":"right","reactionTime":665,"correctAnswer":true},{"block":9,"image":"left-d7ori_14_left_9.0_jit9_0.9.jpg","trial":126,"didAnswer":true,"imgDirection":"left","reactionTime":569,"correctAnswer":true},{"block":10,"image":"d7ori_20_right_9.0_jit11_0.9.jpg","trial":127,"didAnswer":true,"imgDirection":"right","reactionTime":813,"correctAnswer":true},{"block":10,"image":"d12Right2NoB_low.jpg","trial":128,"didAnswer":true,"imgDirection":"right","reactionTime":487,"correctAnswer":true},{"block":10,"image":"d7ori_13_left_9.0_jit11_0.9.jpg","trial":129,"didAnswer":true,"imgDirection":"left","reactionTime":478,"correctAnswer":true},{"block":10,"image":"d7ori_12_right_9.0_jit11_0.9.jpg","trial":130,"didAnswer":true,"imgDirection":"right","reactionTime":723,"correctAnswer":true},{"block":10,"image":"d7ori_5_left_9.0_jit11_0.9.jpg","trial":131,"didAnswer":true,"imgDirection":"left","reactionTime":523,"correctAnswer":true},{"block":10,"image":"d7ori_4_right_9.0_jit11_0.9.jpg","trial":132,"didAnswer":true,"imgDirection":"right","reactionTime":570,"correctAnswer":true},{"block":10,"image":"d7ori_16_right_9.0_jit11_0.9.jpg","trial":133,"didAnswer":true,"imgDirection":"right","reactionTime":660,"correctAnswer":true},{"block":10,"image":"lf7Left7_low.jpg","trial":134,"didAnswer":true,"imgDirection":"left","reactionTime":490,"correctAnswer":true},{"block":10,"image":"d7ori_24_right_9.0_jit11_0.9.jpg","trial":135,"didAnswer":true,"imgDirection":"right","reactionTime":620,"correctAnswer":true},{"block":10,"image":"d7ori_1_left_9.0_jit11_0.9.jpg","trial":136,"didAnswer":true,"imgDirection":"left","reactionTime":626,"correctAnswer":true},{"block":10,"image":"d7ori_8_right_9.0_jit11_0.9.jpg","trial":137,"didAnswer":true,"imgDirection":"right","reactionTime":554,"correctAnswer":true},{"block":10,"image":"d7ori_21_left_9.0_jit11_0.9.jpg","trial":138,"didAnswer":true,"imgDirection":"left","reactionTime":560,"correctAnswer":true},{"block":10,"image":"d7ori_9_left_9.0_jit11_0.9.jpg","trial":139,"didAnswer":true,"imgDirection":"left","reactionTime":533,"correctAnswer":false},{"block":10,"image":"d7ori_17_left_9.0_jit11_0.9.jpg","trial":140,"didAnswer":true,"imgDirection":"left","reactionTime":1024,"correctAnswer":false},{"block":11,"image":"d7ori_2_left_9.0_jit13_0.9.jpg","trial":141,"didAnswer":true,"imgDirection":"left","reactionTime":938,"correctAnswer":true},{"block":11,"image":"d7ori_10_left_9.0_jit13_0.9.jpg","trial":142,"didAnswer":true,"imgDirection":"left","reactionTime":694,"correctAnswer":true},{"block":11,"image":"d7ori_19_right_9.0_jit13_0.9.jpg","trial":143,"didAnswer":true,"imgDirection":"right","reactionTime":550,"correctAnswer":true},{"block":11,"image":"d7ori_15_right_9.0_jit13_0.9.jpg","trial":144,"didAnswer":true,"imgDirection":"right","reactionTime":1123,"correctAnswer":true},{"block":11,"image":"d7ori_6_left_9.0_jit13_0.9.jpg","trial":145,"didAnswer":true,"imgDirection":"left","reactionTime":707,"correctAnswer":false},{"block":11,"image":"d7ori_23_right_9.0_jit13_0.9.jpg","trial":146,"didAnswer":true,"imgDirection":"right","reactionTime":1043,"correctAnswer":true},{"block":11,"image":"lf15Left3NoB_low.jpg","trial":147,"didAnswer":true,"imgDirection":"left","reactionTime":469,"correctAnswer":true},{"block":11,"image":"d7ori_3_right_9.0_jit13_0.9.jpg","trial":148,"didAnswer":true,"imgDirection":"right","reactionTime":1214,"correctAnswer":true},{"block":11,"image":"d7ori_11_right_9.0_jit13_0.9.jpg","trial":149,"didAnswer":true,"imgDirection":"right","reactionTime":592,"correctAnswer":true},{"block":11,"image":"d3Right3_low.jpg","trial":150,"didAnswer":true,"imgDirection":"right","reactionTime":457,"correctAnswer":true},{"block":11,"image":"d7ori_7_right_9.0_jit13_0.9.jpg","trial":151,"didAnswer":true,"imgDirection":"right","reactionTime":593,"correctAnswer":true},{"block":11,"image":"d7ori_22_left_9.0_jit13_0.9.jpg","trial":152,"didAnswer":true,"imgDirection":"left","reactionTime":838,"correctAnswer":true},{"block":11,"image":"d7ori_14_left_9.0_jit13_0.9.jpg","trial":153,"didAnswer":true,"imgDirection":"left","reactionTime":702,"correctAnswer":false},{"block":11,"image":"d7ori_18_left_9.0_jit13_0.9.jpg","trial":154,"didAnswer":true,"imgDirection":"left","reactionTime":628,"correctAnswer":false},{"block":12,"image":"d7ori_2_left_9.0_jit15_0.9.jpg","trial":155,"didAnswer":true,"imgDirection":"left","reactionTime":529,"correctAnswer":false},{"block":12,"image":"d7ori_3_right_9.0_jit15_0.9.jpg","trial":156,"didAnswer":true,"imgDirection":"right","reactionTime":1035,"correctAnswer":true},{"block":12,"image":"lf4Left4_low.jpg","trial":157,"didAnswer":true,"imgDirection":"left","reactionTime":445,"correctAnswer":true},{"block":12,"image":"d7ori_23_right_9.0_jit15_0.9.jpg","trial":158,"didAnswer":true,"imgDirection":"right","reactionTime":652,"correctAnswer":true},{"block":12,"image":"d7ori_6_left_9.0_jit15_0.9.jpg","trial":159,"didAnswer":true,"imgDirection":"left","reactionTime":549,"correctAnswer":true},{"block":12,"image":"d7ori_14_left_9.0_jit15_0.9.jpg","trial":160,"didAnswer":true,"imgDirection":"left","reactionTime":626,"correctAnswer":false},{"block":12,"image":"d7ori_7_right_9.0_jit15_0.9.jpg","trial":161,"didAnswer":true,"imgDirection":"right","reactionTime":1029,"correctAnswer":true},{"block":12,"image":"lf21Left9NoB_low.jpg","trial":162,"didAnswer":true,"imgDirection":"left","reactionTime":523,"correctAnswer":true},{"block":12,"image":"d7ori_11_right_9.0_jit15_0.9.jpg","trial":163,"didAnswer":true,"imgDirection":"right","reactionTime":569,"correctAnswer":true},{"block":12,"image":"d7ori_18_left_9.0_jit15_0.9.jpg","trial":164,"didAnswer":true,"imgDirection":"left","reactionTime":535,"correctAnswer":false},{"block":12,"image":"d7ori_15_right_9.0_jit15_0.9.jpg","trial":165,"didAnswer":true,"imgDirection":"right","reactionTime":963,"correctAnswer":false},{"block":12,"image":"d7ori_19_right_9.0_jit15_0.9.jpg","trial":166,"didAnswer":true,"imgDirection":"right","reactionTime":601,"correctAnswer":true},{"block":12,"image":"d7ori_10_left_9.0_jit15_0.9.jpg","trial":167,"didAnswer":true,"imgDirection":"left","reactionTime":489,"correctAnswer":false},{"block":12,"image":"d7ori_22_left_9.0_jit15_0.9.jpg","trial":168,"didAnswer":true,"imgDirection":"left","reactionTime":687,"correctAnswer":true},{"block":13,"image":"d0ori_left_9.0_0.9_17.jpg","trial":169,"didAnswer":true,"imgDirection":"left","reactionTime":729,"correctAnswer":true},{"block":13,"image":"d0ori_right_9.0_0.9_12.jpg","trial":170,"didAnswer":true,"imgDirection":"right","reactionTime":592,"correctAnswer":true},{"block":13,"image":"d0ori_right_9.0_0.9_14.jpg","trial":171,"didAnswer":true,"imgDirection":"right","reactionTime":683,"correctAnswer":true},{"block":13,"image":"d0ori_left_9.0_0.9_15.jpg","trial":172,"didAnswer":true,"imgDirection":"left","reactionTime":940,"correctAnswer":true},{"block":13,"image":"d0ori_right_9.0_0.9_13.jpg","trial":173,"didAnswer":true,"imgDirection":"right","reactionTime":639,"correctAnswer":true},{"block":13,"image":"d0ori_right_9.0_0.9_16.jpg","trial":174,"didAnswer":true,"imgDirection":"right","reactionTime":818,"correctAnswer":true},{"block":13,"image":"d0ori_left_9.0_0.9_12.jpg","trial":175,"didAnswer":true,"imgDirection":"left","reactionTime":497,"correctAnswer":true},{"block":13,"image":"d17Right7NoB_low.jpg","trial":176,"didAnswer":true,"imgDirection":"right","reactionTime":395,"correctAnswer":true},{"block":13,"image":"d0ori_right_9.0_0.9_17.jpg","trial":177,"didAnswer":true,"imgDirection":"right","reactionTime":455,"correctAnswer":true},{"block":13,"image":"d0ori_right_9.0_0.9_15.jpg","trial":178,"didAnswer":true,"imgDirection":"right","reactionTime":478,"correctAnswer":true},{"block":13,"image":"d0ori_left_9.0_0.9_14.jpg","trial":179,"didAnswer":true,"imgDirection":"left","reactionTime":512,"correctAnswer":true},{"block":13,"image":"d0Right0_low.jpg","trial":180,"didAnswer":true,"imgDirection":"right","reactionTime":489,"correctAnswer":true},{"block":13,"image":"d0ori_left_9.0_0.9_13.jpg","trial":181,"didAnswer":true,"imgDirection":"left","reactionTime":530,"correctAnswer":false},{"block":13,"image":"d0ori_left_9.0_0.9_16.jpg","trial":182,"didAnswer":true,"imgDirection":"left","reactionTime":430,"correctAnswer":true},{"block":14,"image":"d23Right11NoB_low.jpg","trial":183,"didAnswer":true,"imgDirection":"right","reactionTime":387,"correctAnswer":true},{"block":14,"image":"d7ori_6_right_9.0_jit7_0.9.jpg","trial":184,"didAnswer":true,"imgDirection":"right","reactionTime":889,"correctAnswer":true},{"block":14,"image":"d7ori_2_right_9.0_jit7_0.9.jpg","trial":185,"didAnswer":true,"imgDirection":"right","reactionTime":540,"correctAnswer":true},{"block":14,"image":"d7ori_15_left_9.0_jit7_0.9.jpg","trial":186,"didAnswer":true,"imgDirection":"left","reactionTime":479,"correctAnswer":false},{"block":14,"image":"d7ori_18_right_9.0_jit7_0.9.jpg","trial":187,"didAnswer":true,"imgDirection":"right","reactionTime":1206,"correctAnswer":false},{"block":14,"image":"d7ori_22_right_9.0_jit7_0.9.jpg","trial":188,"didAnswer":true,"imgDirection":"right","reactionTime":667,"correctAnswer":true},{"block":14,"image":"d7ori_3_left_9.0_jit7_0.9.jpg","trial":189,"didAnswer":true,"imgDirection":"left","reactionTime":531,"correctAnswer":true},{"block":14,"image":"d7ori_14_right_9.0_jit7_0.9.jpg","trial":190,"didAnswer":true,"imgDirection":"right","reactionTime":562,"correctAnswer":true},{"block":14,"image":"d7ori_19_left_9.0_jit7_0.9.jpg","trial":191,"didAnswer":true,"imgDirection":"left","reactionTime":720,"correctAnswer":true},{"block":14,"image":"d7ori_11_left_9.0_jit7_0.9.jpg","trial":192,"didAnswer":true,"imgDirection":"left","reactionTime":439,"correctAnswer":true},{"block":14,"image":"d7ori_7_left_9.0_jit7_0.9.jpg","trial":193,"didAnswer":true,"imgDirection":"left","reactionTime":501,"correctAnswer":true},{"block":14,"image":"d7ori_23_left_9.0_jit7_0.9.jpg","trial":194,"didAnswer":true,"imgDirection":"left","reactionTime":469,"correctAnswer":true},{"block":14,"image":"d10Right10_low.jpg","trial":195,"didAnswer":true,"imgDirection":"right","reactionTime":422,"correctAnswer":true},{"block":14,"image":"d7ori_10_right_9.0_jit7_0.9.jpg","trial":196,"didAnswer":true,"imgDirection":"right","reactionTime":506,"correctAnswer":false},{"block":15,"image":"lf11Left11_low.jpg","trial":197,"didAnswer":true,"imgDirection":"left","reactionTime":453,"correctAnswer":true},{"block":15,"image":"left-d7ori_11_left_9.0_jit9_0.9.jpg","trial":198,"didAnswer":true,"imgDirection":"left","reactionTime":736,"correctAnswer":false},{"block":15,"image":"right-d7ori_22_right_9.0_jit9_0.9.jpg","trial":199,"didAnswer":true,"imgDirection":"right","reactionTime":521,"correctAnswer":true},{"block":15,"image":"right-d7ori_18_right_9.0_jit9_0.9.jpg","trial":200,"didAnswer":true,"imgDirection":"right","reactionTime":604,"correctAnswer":true},{"block":15,"image":"right-d7ori_6_right_9.0_jit9_0.9.jpg","trial":201,"didAnswer":true,"imgDirection":"right","reactionTime":695,"correctAnswer":true},{"block":15,"image":"left-d7ori_7_left_9.0_jit9_0.9.jpg","trial":202,"didAnswer":true,"imgDirection":"left","reactionTime":849,"correctAnswer":true},{"block":15,"image":"right-d7ori_14_right_9.0_jit9_0.9.jpg","trial":203,"didAnswer":true,"imgDirection":"right","reactionTime":627,"correctAnswer":true},{"block":15,"image":"left-d7ori_23_left_9.0_jit9_0.9.jpg","trial":204,"didAnswer":true,"imgDirection":"left","reactionTime":796,"correctAnswer":true},{"block":15,"image":"right-d7ori_10_right_9.0_jit9_0.9.jpg","trial":205,"didAnswer":true,"imgDirection":"right","reactionTime":522,"correctAnswer":true},{"block":15,"image":"left-d7ori_15_left_9.0_jit9_0.9.jpg","trial":206,"didAnswer":true,"imgDirection":"left","reactionTime":561,"correctAnswer":true},{"block":15,"image":"right-d7ori_2_right_9.0_jit9_0.9.jpg","trial":207,"didAnswer":true,"imgDirection":"right","reactionTime":594,"correctAnswer":true},{"block":15,"image":"lf22Left10NoB_low.jpg","trial":208,"didAnswer":true,"imgDirection":"left","reactionTime":501,"correctAnswer":true},{"block":15,"image":"left-d7ori_3_left_9.0_jit9_0.9.jpg","trial":209,"didAnswer":true,"imgDirection":"left","reactionTime":867,"correctAnswer":true},{"block":15,"image":"left-d7ori_19_left_9.0_jit9_0.9.jpg","trial":210,"didAnswer":true,"imgDirection":"left","reactionTime":872,"correctAnswer":true},{"block":16,"image":"d7ori_9_right_9.0_jit11_0.9.jpg","trial":211,"didAnswer":true,"imgDirection":"right","reactionTime":698,"correctAnswer":true},{"block":16,"image":"d7ori_1_right_9.0_jit11_0.9.jpg","trial":212,"didAnswer":true,"imgDirection":"right","reactionTime":593,"correctAnswer":true},{"block":16,"image":"lf3Left3_low.jpg","trial":213,"didAnswer":true,"imgDirection":"left","reactionTime":439,"correctAnswer":true},{"block":16,"image":"d7ori_8_left_9.0_jit11_0.9.jpg","trial":214,"didAnswer":true,"imgDirection":"left","reactionTime":1303,"correctAnswer":true},{"block":16,"image":"d7ori_4_left_9.0_jit11_0.9.jpg","trial":215,"didAnswer":true,"imgDirection":"left","reactionTime":740,"correctAnswer":true},{"block":16,"image":"lf12Left0NoB_low.jpg","trial":216,"didAnswer":true,"imgDirection":"left","reactionTime":532,"correctAnswer":true},{"block":16,"image":"d7ori_17_right_9.0_jit11_0.9.jpg","trial":217,"didAnswer":true,"imgDirection":"right","reactionTime":613,"correctAnswer":true},{"block":16,"image":"d7ori_16_left_9.0_jit11_0.9.jpg","trial":218,"didAnswer":true,"imgDirection":"left","reactionTime":483,"correctAnswer":true},{"block":16,"image":"d7ori_12_left_9.0_jit11_0.9.jpg","trial":219,"didAnswer":true,"imgDirection":"left","reactionTime":562,"correctAnswer":true},{"block":16,"image":"d7ori_20_left_9.0_jit11_0.9.jpg","trial":220,"didAnswer":true,"imgDirection":"left","reactionTime":1020,"correctAnswer":true},{"block":16,"image":"d7ori_13_right_9.0_jit11_0.9.jpg","trial":221,"didAnswer":true,"imgDirection":"right","reactionTime":695,"correctAnswer":true},{"block":16,"image":"d7ori_21_right_9.0_jit11_0.9.jpg","trial":222,"didAnswer":true,"imgDirection":"right","reactionTime":643,"correctAnswer":true},{"block":16,"image":"d7ori_24_left_9.0_jit11_0.9.jpg","trial":223,"didAnswer":true,"imgDirection":"left","reactionTime":813,"correctAnswer":true},{"block":16,"image":"d7ori_5_right_9.0_jit11_0.9.jpg","trial":224,"didAnswer":true,"imgDirection":"right","reactionTime":616,"correctAnswer":true},{"block":17,"image":"d7ori_3_left_9.0_jit13_0.9.jpg","trial":225,"didAnswer":true,"imgDirection":"left","reactionTime":1640,"correctAnswer":true},{"block":17,"image":"d16Right6NoB_low.jpg","trial":226,"didAnswer":true,"imgDirection":"right","reactionTime":442,"correctAnswer":true},{"block":17,"image":"d7ori_7_left_9.0_jit13_0.9.jpg","trial":227,"didAnswer":true,"imgDirection":"left","reactionTime":496,"correctAnswer":false},{"block":17,"image":"d7ori_6_right_9.0_jit13_0.9.jpg","trial":228,"didAnswer":true,"imgDirection":"right","reactionTime":641,"correctAnswer":false},{"block":17,"image":"d7ori_22_right_9.0_jit13_0.9.jpg","trial":229,"didAnswer":true,"imgDirection":"right","reactionTime":600,"correctAnswer":true},{"block":17,"image":"d7ori_18_right_9.0_jit13_0.9.jpg","trial":230,"didAnswer":true,"imgDirection":"right","reactionTime":1038,"correctAnswer":true},{"block":17,"image":"d7ori_23_left_9.0_jit13_0.9.jpg","trial":231,"didAnswer":true,"imgDirection":"left","reactionTime":753,"correctAnswer":true},{"block":17,"image":"d7ori_10_right_9.0_jit13_0.9.jpg","trial":232,"didAnswer":true,"imgDirection":"right","reactionTime":573,"correctAnswer":true},{"block":17,"image":"d7ori_19_left_9.0_jit13_0.9.jpg","trial":233,"didAnswer":true,"imgDirection":"left","reactionTime":1307,"correctAnswer":true},{"block":17,"image":"d7ori_15_left_9.0_jit13_0.9.jpg","trial":234,"didAnswer":true,"imgDirection":"left","reactionTime":766,"correctAnswer":false},{"block":17,"image":"d5Right5_low.jpg","trial":235,"didAnswer":true,"imgDirection":"right","reactionTime":471,"correctAnswer":true},{"block":17,"image":"d7ori_2_right_9.0_jit13_0.9.jpg","trial":236,"didAnswer":true,"imgDirection":"right","reactionTime":486,"correctAnswer":false},{"block":17,"image":"d7ori_14_right_9.0_jit13_0.9.jpg","trial":237,"didAnswer":true,"imgDirection":"right","reactionTime":589,"correctAnswer":true},{"block":17,"image":"d7ori_11_left_9.0_jit13_0.9.jpg","trial":238,"didAnswer":true,"imgDirection":"left","reactionTime":1024,"correctAnswer":true},{"block":18,"image":"d7ori_3_left_9.0_jit15_0.9.jpg","trial":239,"didAnswer":true,"imgDirection":"left","reactionTime":783,"correctAnswer":true},{"block":18,"image":"d7ori_10_right_9.0_jit15_0.9.jpg","trial":240,"didAnswer":true,"imgDirection":"right","reactionTime":493,"correctAnswer":true},{"block":18,"image":"d8Right8_low.jpg","trial":241,"didAnswer":true,"imgDirection":"right","reactionTime":635,"correctAnswer":true},{"block":18,"image":"d7ori_15_left_9.0_jit15_0.9.jpg","trial":242,"didAnswer":true,"imgDirection":"left","reactionTime":562,"correctAnswer":false},{"block":18,"image":"d7ori_14_right_9.0_jit15_0.9.jpg","trial":243,"didAnswer":true,"imgDirection":"right","reactionTime":837,"correctAnswer":true},{"block":18,"image":"d7ori_11_left_9.0_jit15_0.9.jpg","trial":244,"didAnswer":true,"imgDirection":"left","reactionTime":1030,"correctAnswer":true},{"block":18,"image":"d7ori_7_left_9.0_jit15_0.9.jpg","trial":245,"didAnswer":true,"imgDirection":"left","reactionTime":600,"correctAnswer":false},{"block":18,"image":"d7ori_6_right_9.0_jit15_0.9.jpg","trial":246,"didAnswer":true,"imgDirection":"right","reactionTime":1075,"correctAnswer":false},{"block":18,"image":"d7ori_2_right_9.0_jit15_0.9.jpg","trial":247,"didAnswer":true,"imgDirection":"right","reactionTime":576,"correctAnswer":true},{"block":18,"image":"lf17Left5NoB_low.jpg","trial":248,"didAnswer":true,"imgDirection":"left","reactionTime":517,"correctAnswer":true},{"block":18,"image":"d7ori_22_right_9.0_jit15_0.9.jpg","trial":249,"didAnswer":true,"imgDirection":"right","reactionTime":633,"correctAnswer":true},{"block":18,"image":"d7ori_18_right_9.0_jit15_0.9.jpg","trial":250,"didAnswer":true,"imgDirection":"right","reactionTime":1182,"correctAnswer":true},{"block":18,"image":"d7ori_23_left_9.0_jit15_0.9.jpg","trial":251,"didAnswer":true,"imgDirection":"left","reactionTime":620,"correctAnswer":true},{"block":18,"image":"d7ori_19_left_9.0_jit15_0.9.jpg","trial":252,"didAnswer":true,"imgDirection":"left","reactionTime":586,"correctAnswer":false},{"block":19,"image":"d0ori_left_9.0_0.9_18.jpg","trial":253,"didAnswer":true,"imgDirection":"left","reactionTime":689,"correctAnswer":true},{"block":19,"image":"d0ori_left_9.0_0.9_19.jpg","trial":254,"didAnswer":true,"imgDirection":"left","reactionTime":537,"correctAnswer":true},{"block":19,"image":"d0ori_right_9.0_0.9_23.jpg","trial":255,"didAnswer":true,"imgDirection":"right","reactionTime":556,"correctAnswer":true},{"block":19,"image":"d0ori_left_9.0_0.9_23.jpg","trial":256,"didAnswer":true,"imgDirection":"left","reactionTime":529,"correctAnswer":true},{"block":19,"image":"d0ori_left_9.0_0.9_22.jpg","trial":257,"didAnswer":true,"imgDirection":"left","reactionTime":527,"correctAnswer":true},{"block":19,"image":"d0ori_right_9.0_0.9_20.jpg","trial":258,"didAnswer":true,"imgDirection":"right","reactionTime":658,"correctAnswer":true},{"block":19,"image":"d0ori_right_9.0_0.9_19.jpg","trial":259,"didAnswer":true,"imgDirection":"right","reactionTime":482,"correctAnswer":false},{"block":19,"image":"d0ori_left_9.0_0.9_20.jpg","trial":260,"didAnswer":true,"imgDirection":"left","reactionTime":566,"correctAnswer":true},{"block":19,"image":"d0ori_left_9.0_0.9_21.jpg","trial":261,"didAnswer":true,"imgDirection":"left","reactionTime":527,"correctAnswer":true},{"block":19,"image":"d0ori_right_9.0_0.9_21.jpg","trial":262,"didAnswer":true,"imgDirection":"right","reactionTime":479,"correctAnswer":true},{"block":19,"image":"d0ori_right_9.0_0.9_18.jpg","trial":263,"didAnswer":true,"imgDirection":"right","reactionTime":616,"correctAnswer":true},{"block":19,"image":"lf0Left0_low.jpg","trial":264,"didAnswer":true,"imgDirection":"left","reactionTime":458,"correctAnswer":true},{"block":19,"image":"d13Right3NoB_low.jpg","trial":265,"didAnswer":true,"imgDirection":"right","reactionTime":466,"correctAnswer":true},{"block":19,"image":"d0ori_right_9.0_0.9_22.jpg","trial":266,"didAnswer":true,"imgDirection":"right","reactionTime":515,"correctAnswer":true},{"block":20,"image":"d7ori_5_right_9.0_jit7_0.9.jpg","trial":267,"didAnswer":true,"imgDirection":"right","reactionTime":1434,"correctAnswer":false},{"block":20,"image":"d7ori_17_right_9.0_jit7_0.9.jpg","trial":268,"didAnswer":true,"imgDirection":"right","reactionTime":512,"correctAnswer":true},{"block":20,"image":"d7ori_1_right_9.0_jit7_0.9.jpg","trial":269,"didAnswer":true,"imgDirection":"right","reactionTime":776,"correctAnswer":true},{"block":20,"image":"lf1Left1_low.jpg","trial":270,"didAnswer":true,"imgDirection":"left","reactionTime":654,"correctAnswer":true},{"block":20,"image":"d22Right10NoB_low.jpg","trial":271,"didAnswer":true,"imgDirection":"right","reactionTime":432,"correctAnswer":true},{"block":20,"image":"d7ori_13_right_9.0_jit7_0.9.jpg","trial":272,"didAnswer":true,"imgDirection":"right","reactionTime":487,"correctAnswer":true},{"block":20,"image":"d7ori_20_left_9.0_jit7_0.9.jpg","trial":273,"didAnswer":true,"imgDirection":"left","reactionTime":543,"correctAnswer":true},{"block":20,"image":"d7ori_24_left_9.0_jit7_0.9.jpg","trial":274,"didAnswer":true,"imgDirection":"left","reactionTime":480,"correctAnswer":true},{"block":20,"image":"d7ori_8_left_9.0_jit7_0.9.jpg","trial":275,"didAnswer":true,"imgDirection":"left","reactionTime":509,"correctAnswer":false},{"block":20,"image":"d7ori_21_right_9.0_jit7_0.9.jpg","trial":276,"didAnswer":true,"imgDirection":"right","reactionTime":585,"correctAnswer":true},{"block":20,"image":"d7ori_4_left_9.0_jit7_0.9.jpg","trial":277,"didAnswer":true,"imgDirection":"left","reactionTime":745,"correctAnswer":false},{"block":20,"image":"d7ori_12_left_9.0_jit7_0.9.jpg","trial":278,"didAnswer":true,"imgDirection":"left","reactionTime":517,"correctAnswer":true},{"block":20,"image":"d7ori_9_right_9.0_jit7_0.9.jpg","trial":279,"didAnswer":true,"imgDirection":"right","reactionTime":593,"correctAnswer":true},{"block":20,"image":"d7ori_16_left_9.0_jit7_0.9.jpg","trial":280,"didAnswer":true,"imgDirection":"left","reactionTime":597,"correctAnswer":false},{"block":21,"image":"right-d7ori_9_right_9.0_jit9_0.9.jpg","trial":281,"didAnswer":true,"imgDirection":"right","reactionTime":650,"correctAnswer":true},{"block":21,"image":"right-d7ori_5_right_9.0_jit9_0.9.jpg","trial":282,"didAnswer":true,"imgDirection":"right","reactionTime":519,"correctAnswer":true},{"block":21,"image":"left-d7ori_4_left_9.0_jit9_0.9.jpg","trial":283,"didAnswer":true,"imgDirection":"left","reactionTime":534,"correctAnswer":true},{"block":21,"image":"lf14Left2NoB_low.jpg","trial":284,"didAnswer":true,"imgDirection":"left","reactionTime":471,"correctAnswer":true},{"block":21,"image":"right-d7ori_1_right_9.0_jit9_0.9.jpg","trial":285,"didAnswer":true,"imgDirection":"right","reactionTime":552,"correctAnswer":true},{"block":21,"image":"right-d7ori_17_right_9.0_jit9_0.9.jpg","trial":286,"didAnswer":true,"imgDirection":"right","reactionTime":484,"correctAnswer":true},{"block":21,"image":"right-d7ori_21_right_9.0_jit9_0.9.jpg","trial":287,"didAnswer":true,"imgDirection":"right","reactionTime":514,"correctAnswer":true},{"block":21,"image":"right-d7ori_13_right_9.0_jit9_0.9.jpg","trial":288,"didAnswer":true,"imgDirection":"right","reactionTime":469,"correctAnswer":true},{"block":21,"image":"left-d7ori_16_left_9.0_jit9_0.9.jpg","trial":289,"didAnswer":true,"imgDirection":"left","reactionTime":956,"correctAnswer":true},{"block":21,"image":"d9Right9_low.jpg","trial":290,"didAnswer":true,"imgDirection":"right","reactionTime":447,"correctAnswer":true},{"block":21,"image":"left-d7ori_24_left_9.0_jit9_0.9.jpg","trial":291,"didAnswer":true,"imgDirection":"left","reactionTime":796,"correctAnswer":true},{"block":21,"image":"left-d7ori_12_left_9.0_jit9_0.9.jpg","trial":292,"didAnswer":true,"imgDirection":"left","reactionTime":1195,"correctAnswer":false},{"block":21,"image":"left-d7ori_20_left_9.0_jit9_0.9.jpg","trial":293,"didAnswer":true,"imgDirection":"left","reactionTime":634,"correctAnswer":true},{"block":21,"image":"left-d7ori_8_left_9.0_jit9_0.9.jpg","trial":294,"didAnswer":true,"imgDirection":"left","reactionTime":550,"correctAnswer":true},{"block":22,"image":"d7ori_22_right_9.0_jit11_0.9.jpg","trial":295,"didAnswer":true,"imgDirection":"right","reactionTime":1057,"correctAnswer":true},{"block":22,"image":"d7ori_14_right_9.0_jit11_0.9.jpg","trial":296,"didAnswer":true,"imgDirection":"right","reactionTime":680,"correctAnswer":true},{"block":22,"image":"d7ori_6_right_9.0_jit11_0.9.jpg","trial":297,"didAnswer":true,"imgDirection":"right","reactionTime":587,"correctAnswer":true},{"block":22,"image":"d7ori_10_right_9.0_jit11_0.9.jpg","trial":298,"didAnswer":true,"imgDirection":"right","reactionTime":569,"correctAnswer":true},{"block":22,"image":"d7ori_11_left_9.0_jit11_0.9.jpg","trial":299,"didAnswer":true,"imgDirection":"left","reactionTime":621,"correctAnswer":true},{"block":22,"image":"d7ori_7_left_9.0_jit11_0.9.jpg","trial":300,"didAnswer":true,"imgDirection":"left","reactionTime":663,"correctAnswer":true},{"block":22,"image":"d7ori_3_left_9.0_jit11_0.9.jpg","trial":301,"didAnswer":true,"imgDirection":"left","reactionTime":915,"correctAnswer":true},{"block":22,"image":"d7ori_23_left_9.0_jit11_0.9.jpg","trial":302,"didAnswer":true,"imgDirection":"left","reactionTime":610,"correctAnswer":true},{"block":22,"image":"d7ori_18_right_9.0_jit11_0.9.jpg","trial":303,"didAnswer":true,"imgDirection":"right","reactionTime":531,"correctAnswer":true},{"block":22,"image":"d7ori_19_left_9.0_jit11_0.9.jpg","trial":304,"didAnswer":true,"imgDirection":"left","reactionTime":669,"correctAnswer":true},{"block":22,"image":"d7ori_2_right_9.0_jit11_0.9.jpg","trial":305,"didAnswer":true,"imgDirection":"right","reactionTime":515,"correctAnswer":true},{"block":22,"image":"d7ori_15_left_9.0_jit11_0.9.jpg","trial":306,"didAnswer":true,"imgDirection":"left","reactionTime":647,"correctAnswer":true},{"block":22,"image":"lf8Left8_low.jpg","trial":307,"didAnswer":true,"imgDirection":"left","reactionTime":471,"correctAnswer":true},{"block":22,"image":"lf19Left7NoB_low.jpg","trial":308,"didAnswer":true,"imgDirection":"left","reactionTime":496,"correctAnswer":true},{"block":23,"image":"d7ori_13_right_9.0_jit13_0.9.jpg","trial":309,"didAnswer":true,"imgDirection":"right","reactionTime":520,"correctAnswer":true},{"block":23,"image":"d7ori_12_left_9.0_jit13_0.9.jpg","trial":310,"didAnswer":true,"imgDirection":"left","reactionTime":707,"correctAnswer":true},{"block":23,"image":"d18Right8NoB_low.jpg","trial":311,"didAnswer":true,"imgDirection":"right","reactionTime":506,"correctAnswer":true},{"block":23,"image":"d7ori_4_left_9.0_jit13_0.9.jpg","trial":312,"didAnswer":true,"imgDirection":"left","reactionTime":492,"correctAnswer":false},{"block":23,"image":"d7ori_9_right_9.0_jit13_0.9.jpg","trial":313,"didAnswer":true,"imgDirection":"right","reactionTime":506,"correctAnswer":true},{"block":23,"image":"d7Right7_low.jpg","trial":314,"didAnswer":true,"imgDirection":"right","reactionTime":673,"correctAnswer":true},{"block":23,"image":"d7ori_16_left_9.0_jit13_0.9.jpg","trial":315,"didAnswer":true,"imgDirection":"left","reactionTime":574,"correctAnswer":false},{"block":23,"image":"d7ori_5_right_9.0_jit13_0.9.jpg","trial":316,"didAnswer":true,"imgDirection":"right","reactionTime":999,"correctAnswer":true},{"block":23,"image":"d7ori_24_left_9.0_jit13_0.9.jpg","trial":317,"didAnswer":true,"imgDirection":"left","reactionTime":515,"correctAnswer":true},{"block":23,"image":"d7ori_21_right_9.0_jit13_0.9.jpg","trial":318,"didAnswer":true,"imgDirection":"right","reactionTime":592,"correctAnswer":true},{"block":23,"image":"d7ori_1_right_9.0_jit13_0.9.jpg","trial":319,"didAnswer":true,"imgDirection":"right","reactionTime":920,"correctAnswer":true},{"block":23,"image":"d7ori_8_left_9.0_jit13_0.9.jpg","trial":320,"didAnswer":true,"imgDirection":"left","reactionTime":1147,"correctAnswer":true},{"block":23,"image":"d7ori_17_right_9.0_jit13_0.9.jpg","trial":321,"didAnswer":true,"imgDirection":"right","reactionTime":711,"correctAnswer":true},{"block":23,"image":"d7ori_20_left_9.0_jit13_0.9.jpg","trial":322,"didAnswer":true,"imgDirection":"left","reactionTime":722,"correctAnswer":true},{"block":24,"image":"lf20Left8NoB_low.jpg","trial":323,"didAnswer":true,"imgDirection":"left","reactionTime":447,"correctAnswer":true},{"block":24,"image":"d7ori_20_left_9.0_jit15_0.9.jpg","trial":324,"didAnswer":true,"imgDirection":"left","reactionTime":472,"correctAnswer":true},{"block":24,"image":"d7ori_24_left_9.0_jit15_0.9.jpg","trial":325,"didAnswer":true,"imgDirection":"left","reactionTime":625,"correctAnswer":true},{"block":24,"image":"d7ori_21_right_9.0_jit15_0.9.jpg","trial":326,"didAnswer":true,"imgDirection":"right","reactionTime":631,"correctAnswer":true},{"block":24,"image":"d7ori_13_right_9.0_jit15_0.9.jpg","trial":327,"didAnswer":true,"imgDirection":"right","reactionTime":595,"correctAnswer":true},{"block":24,"image":"d7ori_5_right_9.0_jit15_0.9.jpg","trial":328,"didAnswer":true,"imgDirection":"right","reactionTime":800,"correctAnswer":true},{"block":24,"image":"d7ori_17_right_9.0_jit15_0.9.jpg","trial":329,"didAnswer":true,"imgDirection":"right","reactionTime":1216,"correctAnswer":true},{"block":24,"image":"d1Right1_low.jpg","trial":330,"didAnswer":true,"imgDirection":"right","reactionTime":474,"correctAnswer":true},{"block":24,"image":"d7ori_16_left_9.0_jit15_0.9.jpg","trial":331,"didAnswer":true,"imgDirection":"left","reactionTime":697,"correctAnswer":false},{"block":24,"image":"d7ori_4_left_9.0_jit15_0.9.jpg","trial":332,"didAnswer":true,"imgDirection":"left","reactionTime":1199,"correctAnswer":false},{"block":24,"image":"d7ori_8_left_9.0_jit15_0.9.jpg","trial":333,"didAnswer":false,"imgDirection":"left","reactionTime":2001,"correctAnswer":null},{"block":24,"image":"d7ori_9_right_9.0_jit15_0.9.jpg","trial":334,"didAnswer":true,"imgDirection":"right","reactionTime":1613,"correctAnswer":true},{"block":24,"image":"d7ori_12_left_9.0_jit15_0.9.jpg","trial":335,"didAnswer":true,"imgDirection":"left","reactionTime":1102,"correctAnswer":false},{"block":24,"image":"d7ori_1_right_9.0_jit15_0.9.jpg","trial":336,"didAnswer":true,"imgDirection":"right","reactionTime":1004,"correctAnswer":true}],"browserInfo":{"windowInfo":{"width":1440,"height":749},"navigatorInfo":{"onLine":true,"vendor":"Apple Computer, Inc.","appName":"Netscape","plugins":{"0":{"0":{},"1":{},"2":{}}},"product":"Gecko","language":"en-us","platform":"MacIntel","mimeTypes":{"0":{},"1":{},"2":{},"3":{}},"userAgent":"Mozilla/5.0 (Macintosh; Intel Mac OS X 10_11_6) AppleWebKit/602.4.8 (KHTML, like Gecko) Version/10.0.3 Safari/602.4.8","vendorSub":"","appVersion":"5.0 (Macintosh; Intel Mac OS X 10_11_6) AppleWebKit/602.4.8 (KHTML, like Gecko) Version/10.0.3 Safari/602.4.8","doNotTrack":"1","productSub":"20030107","appCodeName":"Mozilla","geolocation":{},"cookieEnabled":true}}}