{"id":51,"finished":true,"user":"sofie","test":"Jovi4","started":"2017-05-24T13:02:01.622Z","ended":"2017-05-24T13:19:11.755Z","data":[{"block":1,"image":"d0ori_right_9.0_0.9_1.jpg","trial":1,"didAnswer":true,"imgDirection":"right","reactionTime":966,"correctAnswer":true},{"block":1,"image":"d0ori_left_9.0_0.9_2.jpg","trial":2,"didAnswer":true,"imgDirection":"left","reactionTime":837,"correctAnswer":true},{"block":1,"image":"d0ori_right_9.0_0.9_3.jpg","trial":3,"didAnswer":true,"imgDirection":"right","reactionTime":818,"correctAnswer":true},{"block":1,"image":"d0ori_right_9.0_0.9_2.jpg","trial":4,"didAnswer":true,"imgDirection":"right","reactionTime":940,"correctAnswer":true},{"block":1,"image":"d0ori_left_9.0_0.9_3.jpg","trial":5,"didAnswer":true,"imgDirection":"left","reactionTime":1071,"correctAnswer":true},{"block":1,"image":"d0ori_right_9.0_0.9_0.jpg","trial":6,"didAnswer":true,"imgDirection":"right","reactionTime":1005,"correctAnswer":true},{"block":1,"image":"d0ori_left_9.0_0.9_5.jpg","trial":7,"didAnswer":true,"imgDirection":"left","reactionTime":943,"correctAnswer":true},{"block":1,"image":"d0ori_right_9.0_0.9_4.jpg","trial":8,"didAnswer":true,"imgDirection":"right","reactionTime":860,"correctAnswer":true},{"block":1,"image":"d14Right4NoB_low.jpg","trial":9,"didAnswer":true,"imgDirection":"right","reactionTime":979,"correctAnswer":true},{"block":1,"image":"d6Right6_low.jpg","trial":10,"didAnswer":true,"imgDirection":"right","reactionTime":1159,"correctAnswer":true},{"block":1,"image":"d0ori_right_9.0_0.9_5.jpg","trial":11,"didAnswer":false,"imgDirection":"right","reactionTime":2012,"correctAnswer":null},{"block":1,"image":"d0ori_left_9.0_0.9_4.jpg","trial":12,"didAnswer":true,"imgDirection":"left","reactionTime":1393,"correctAnswer":true},{"block":1,"image":"d0ori_left_9.0_0.9_0.jpg","trial":13,"didAnswer":true,"imgDirection":"left","reactionTime":1007,"correctAnswer":true},{"block":1,"image":"d0ori_left_9.0_0.9_1.jpg","trial":14,"didAnswer":true,"imgDirection":"left","reactionTime":1341,"correctAnswer":true},{"block":2,"image":"d7ori_1_left_9.0_jit7_0.9.jpg","trial":15,"didAnswer":true,"imgDirection":"left","reactionTime":825,"correctAnswer":true},{"block":2,"image":"d7ori_12_right_9.0_jit7_0.9.jpg","trial":16,"didAnswer":true,"imgDirection":"right","reactionTime":1332,"correctAnswer":true},{"block":2,"image":"d7ori_9_left_9.0_jit7_0.9.jpg","trial":17,"didAnswer":true,"imgDirection":"left","reactionTime":1088,"correctAnswer":true},{"block":2,"image":"d7ori_24_right_9.0_jit7_0.9.jpg","trial":18,"didAnswer":true,"imgDirection":"right","reactionTime":1840,"correctAnswer":true},{"block":2,"image":"d7ori_20_right_9.0_jit7_0.9.jpg","trial":19,"didAnswer":true,"imgDirection":"right","reactionTime":1268,"correctAnswer":true},{"block":2,"image":"d7ori_16_right_9.0_jit7_0.9.jpg","trial":20,"didAnswer":true,"imgDirection":"right","reactionTime":1011,"correctAnswer":true},{"block":2,"image":"d7ori_13_left_9.0_jit7_0.9.jpg","trial":21,"didAnswer":true,"imgDirection":"left","reactionTime":1308,"correctAnswer":true},{"block":2,"image":"lf5Left5_low.jpg","trial":22,"didAnswer":true,"imgDirection":"left","reactionTime":1070,"correctAnswer":true},{"block":2,"image":"d7ori_5_left_9.0_jit7_0.9.jpg","trial":23,"didAnswer":true,"imgDirection":"left","reactionTime":1251,"correctAnswer":true},{"block":2,"image":"d7ori_8_right_9.0_jit7_0.9.jpg","trial":24,"didAnswer":true,"imgDirection":"right","reactionTime":1046,"correctAnswer":true},{"block":2,"image":"d7ori_21_left_9.0_jit7_0.9.jpg","trial":25,"didAnswer":true,"imgDirection":"left","reactionTime":1447,"correctAnswer":true},{"block":2,"image":"d7ori_17_left_9.0_jit7_0.9.jpg","trial":26,"didAnswer":true,"imgDirection":"left","reactionTime":1543,"correctAnswer":true},{"block":2,"image":"lf18Left6NoB_low.jpg","trial":27,"didAnswer":true,"imgDirection":"left","reactionTime":1096,"correctAnswer":true},{"block":2,"image":"d7ori_4_right_9.0_jit7_0.9.jpg","trial":28,"didAnswer":true,"imgDirection":"right","reactionTime":1379,"correctAnswer":true},{"block":3,"image":"right-d7ori_20_right_9.0_jit9_0.9.jpg","trial":29,"didAnswer":true,"imgDirection":"right","reactionTime":1189,"correctAnswer":true},{"block":3,"image":"lf2Left2_low.jpg","trial":30,"didAnswer":true,"imgDirection":"left","reactionTime":917,"correctAnswer":true},{"block":3,"image":"left-d7ori_9_left_9.0_jit9_0.9.jpg","trial":31,"didAnswer":true,"imgDirection":"left","reactionTime":1050,"correctAnswer":true},{"block":3,"image":"left-d7ori_5_left_9.0_jit9_0.9.jpg","trial":32,"didAnswer":true,"imgDirection":"left","reactionTime":1138,"correctAnswer":true},{"block":3,"image":"left-d7ori_17_left_9.0_jit9_0.9.jpg","trial":33,"didAnswer":true,"imgDirection":"left","reactionTime":1051,"correctAnswer":true},{"block":3,"image":"right-d7ori_16_right_9.0_jit9_0.9.jpg","trial":34,"didAnswer":true,"imgDirection":"right","reactionTime":1318,"correctAnswer":true},{"block":3,"image":"lf23Left11NoB_low.jpg","trial":35,"didAnswer":true,"imgDirection":"left","reactionTime":918,"correctAnswer":true},{"block":3,"image":"right-d7ori_12_right_9.0_jit9_0.9.jpg","trial":36,"didAnswer":true,"imgDirection":"right","reactionTime":1156,"correctAnswer":true},{"block":3,"image":"right-d7ori_8_right_9.0_jit9_0.9.jpg","trial":37,"didAnswer":true,"imgDirection":"right","reactionTime":1158,"correctAnswer":true},{"block":3,"image":"left-d7ori_21_left_9.0_jit9_0.9.jpg","trial":38,"didAnswer":true,"imgDirection":"left","reactionTime":1229,"correctAnswer":true},{"block":3,"image":"left-d7ori_1_left_9.0_jit9_0.9.jpg","trial":39,"didAnswer":true,"imgDirection":"left","reactionTime":1727,"correctAnswer":true},{"block":3,"image":"right-d7ori_24_right_9.0_jit9_0.9.jpg","trial":40,"didAnswer":false,"imgDirection":"right","reactionTime":2010,"correctAnswer":null},{"block":3,"image":"right-d7ori_4_right_9.0_jit9_0.9.jpg","trial":41,"didAnswer":true,"imgDirection":"right","reactionTime":1023,"correctAnswer":true},{"block":3,"image":"left-d7ori_13_left_9.0_jit9_0.9.jpg","trial":42,"didAnswer":true,"imgDirection":"left","reactionTime":1594,"correctAnswer":false},{"block":4,"image":"d7ori_3_right_9.0_jit11_0.9.jpg","trial":43,"didAnswer":true,"imgDirection":"right","reactionTime":843,"correctAnswer":true},{"block":4,"image":"lf10Left10_low.jpg","trial":44,"didAnswer":true,"imgDirection":"left","reactionTime":842,"correctAnswer":true},{"block":4,"image":"d7ori_15_right_9.0_jit11_0.9.jpg","trial":45,"didAnswer":true,"imgDirection":"right","reactionTime":1564,"correctAnswer":true},{"block":4,"image":"d7ori_6_left_9.0_jit11_0.9.jpg","trial":46,"didAnswer":true,"imgDirection":"left","reactionTime":1435,"correctAnswer":true},{"block":4,"image":"d10Right0NoB_low.jpg","trial":47,"didAnswer":true,"imgDirection":"right","reactionTime":946,"correctAnswer":true},{"block":4,"image":"d7ori_22_left_9.0_jit11_0.9.jpg","trial":48,"didAnswer":true,"imgDirection":"left","reactionTime":1146,"correctAnswer":true},{"block":4,"image":"d7ori_11_right_9.0_jit11_0.9.jpg","trial":49,"didAnswer":true,"imgDirection":"right","reactionTime":1312,"correctAnswer":true},{"block":4,"image":"d7ori_18_left_9.0_jit11_0.9.jpg","trial":50,"didAnswer":false,"imgDirection":"left","reactionTime":2014,"correctAnswer":null},{"block":4,"image":"d7ori_10_left_9.0_jit11_0.9.jpg","trial":51,"didAnswer":true,"imgDirection":"left","reactionTime":1147,"correctAnswer":true},{"block":4,"image":"d7ori_14_left_9.0_jit11_0.9.jpg","trial":52,"didAnswer":true,"imgDirection":"left","reactionTime":1552,"correctAnswer":true},{"block":4,"image":"d7ori_23_right_9.0_jit11_0.9.jpg","trial":53,"didAnswer":true,"imgDirection":"right","reactionTime":1535,"correctAnswer":false},{"block":4,"image":"d7ori_7_right_9.0_jit11_0.9.jpg","trial":54,"didAnswer":false,"imgDirection":"right","reactionTime":2004,"correctAnswer":null},{"block":4,"image":"d7ori_19_right_9.0_jit11_0.9.jpg","trial":55,"didAnswer":true,"imgDirection":"right","reactionTime":920,"correctAnswer":true},{"block":4,"image":"d7ori_2_left_9.0_jit11_0.9.jpg","trial":56,"didAnswer":true,"imgDirection":"left","reactionTime":994,"correctAnswer":true},{"block":5,"image":"d7ori_21_left_9.0_jit13_0.9.jpg","trial":57,"didAnswer":true,"imgDirection":"left","reactionTime":888,"correctAnswer":true},{"block":5,"image":"d7ori_16_right_9.0_jit13_0.9.jpg","trial":58,"didAnswer":true,"imgDirection":"right","reactionTime":846,"correctAnswer":true},{"block":5,"image":"lf13Left1NoB_low.jpg","trial":59,"didAnswer":true,"imgDirection":"left","reactionTime":778,"correctAnswer":true},{"block":5,"image":"d7ori_20_right_9.0_jit13_0.9.jpg","trial":60,"didAnswer":true,"imgDirection":"right","reactionTime":1010,"correctAnswer":true},{"block":5,"image":"d7ori_12_right_9.0_jit13_0.9.jpg","trial":61,"didAnswer":false,"imgDirection":"right","reactionTime":2012,"correctAnswer":null},{"block":5,"image":"d7ori_1_left_9.0_jit13_0.9.jpg","trial":62,"didAnswer":false,"imgDirection":"left","reactionTime":2003,"correctAnswer":null},{"block":5,"image":"d7ori_24_right_9.0_jit13_0.9.jpg","trial":63,"didAnswer":true,"imgDirection":"right","reactionTime":1514,"correctAnswer":true},{"block":5,"image":"d7ori_13_left_9.0_jit13_0.9.jpg","trial":64,"didAnswer":true,"imgDirection":"left","reactionTime":1593,"correctAnswer":true},{"block":5,"image":"d7ori_17_left_9.0_jit13_0.9.jpg","trial":65,"didAnswer":false,"imgDirection":"left","reactionTime":2003,"correctAnswer":null},{"block":5,"image":"d7ori_5_left_9.0_jit13_0.9.jpg","trial":66,"didAnswer":false,"imgDirection":"left","reactionTime":2012,"correctAnswer":null},{"block":5,"image":"d4Right4_low.jpg","trial":67,"didAnswer":true,"imgDirection":"right","reactionTime":527,"correctAnswer":true},{"block":5,"image":"d7ori_4_right_9.0_jit13_0.9.jpg","trial":68,"didAnswer":true,"imgDirection":"right","reactionTime":1848,"correctAnswer":true},{"block":5,"image":"d7ori_8_right_9.0_jit13_0.9.jpg","trial":69,"didAnswer":true,"imgDirection":"right","reactionTime":1980,"correctAnswer":true},{"block":5,"image":"d7ori_9_left_9.0_jit13_0.9.jpg","trial":70,"didAnswer":false,"imgDirection":"left","reactionTime":2015,"correctAnswer":null},{"block":6,"image":"d7ori_21_left_9.0_jit15_0.9.jpg","trial":71,"didAnswer":true,"imgDirection":"left","reactionTime":1144,"correctAnswer":true},{"block":6,"image":"d7ori_16_right_9.0_jit15_0.9.jpg","trial":72,"didAnswer":true,"imgDirection":"right","reactionTime":1290,"correctAnswer":false},{"block":6,"image":"d7ori_17_left_9.0_jit15_0.9.jpg","trial":73,"didAnswer":true,"imgDirection":"left","reactionTime":1489,"correctAnswer":true},{"block":6,"image":"d7ori_13_left_9.0_jit15_0.9.jpg","trial":74,"didAnswer":false,"imgDirection":"left","reactionTime":2005,"correctAnswer":null},{"block":6,"image":"d7ori_20_right_9.0_jit15_0.9.jpg","trial":75,"didAnswer":true,"imgDirection":"right","reactionTime":1102,"correctAnswer":true},{"block":6,"image":"lf6Left6_low.jpg","trial":76,"didAnswer":true,"imgDirection":"left","reactionTime":772,"correctAnswer":true},{"block":6,"image":"d7ori_12_right_9.0_jit15_0.9.jpg","trial":77,"didAnswer":false,"imgDirection":"right","reactionTime":2011,"correctAnswer":null},{"block":6,"image":"d7ori_1_left_9.0_jit15_0.9.jpg","trial":78,"didAnswer":true,"imgDirection":"left","reactionTime":1325,"correctAnswer":true},{"block":6,"image":"d15Right5NoB_low.jpg","trial":79,"didAnswer":true,"imgDirection":"right","reactionTime":830,"correctAnswer":true},{"block":6,"image":"d7ori_9_left_9.0_jit15_0.9.jpg","trial":80,"didAnswer":false,"imgDirection":"left","reactionTime":2007,"correctAnswer":null},{"block":6,"image":"d7ori_4_right_9.0_jit15_0.9.jpg","trial":81,"didAnswer":false,"imgDirection":"right","reactionTime":2008,"correctAnswer":null},{"block":6,"image":"d7ori_24_right_9.0_jit15_0.9.jpg","trial":82,"didAnswer":true,"imgDirection":"right","reactionTime":1777,"correctAnswer":true},{"block":6,"image":"d7ori_8_right_9.0_jit15_0.9.jpg","trial":83,"didAnswer":true,"imgDirection":"right","reactionTime":1489,"correctAnswer":true},{"block":6,"image":"d7ori_5_left_9.0_jit15_0.9.jpg","trial":84,"didAnswer":false,"imgDirection":"left","reactionTime":2001,"correctAnswer":null},{"block":7,"image":"d0ori_left_9.0_0.9_10.jpg","trial":85,"didAnswer":true,"imgDirection":"left","reactionTime":956,"correctAnswer":true},{"block":7,"image":"d0ori_right_9.0_0.9_6.jpg","trial":86,"didAnswer":true,"imgDirection":"right","reactionTime":693,"correctAnswer":true},{"block":7,"image":"d0ori_left_9.0_0.9_9.jpg","trial":87,"didAnswer":true,"imgDirection":"left","reactionTime":772,"correctAnswer":true},{"block":7,"image":"d0ori_left_9.0_0.9_6.jpg","trial":88,"didAnswer":true,"imgDirection":"left","reactionTime":798,"correctAnswer":true},{"block":7,"image":"d11Right11_low.jpg","trial":89,"didAnswer":true,"imgDirection":"right","reactionTime":653,"correctAnswer":true},{"block":7,"image":"d0ori_left_9.0_0.9_7.jpg","trial":90,"didAnswer":true,"imgDirection":"left","reactionTime":629,"correctAnswer":true},{"block":7,"image":"d0ori_right_9.0_0.9_9.jpg","trial":91,"didAnswer":true,"imgDirection":"right","reactionTime":881,"correctAnswer":true},{"block":7,"image":"d0ori_right_9.0_0.9_7.jpg","trial":92,"didAnswer":true,"imgDirection":"right","reactionTime":898,"correctAnswer":true},{"block":7,"image":"d0ori_right_9.0_0.9_11.jpg","trial":93,"didAnswer":true,"imgDirection":"right","reactionTime":769,"correctAnswer":true},{"block":7,"image":"d0ori_right_9.0_0.9_8.jpg","trial":94,"didAnswer":true,"imgDirection":"right","reactionTime":800,"correctAnswer":true},{"block":7,"image":"d11Right1NoB_low.jpg","trial":95,"didAnswer":true,"imgDirection":"right","reactionTime":669,"correctAnswer":true},{"block":7,"image":"d0ori_left_9.0_0.9_11.jpg","trial":96,"didAnswer":true,"imgDirection":"left","reactionTime":620,"correctAnswer":true},{"block":7,"image":"d0ori_left_9.0_0.9_8.jpg","trial":97,"didAnswer":true,"imgDirection":"left","reactionTime":857,"correctAnswer":true},{"block":7,"image":"d0ori_right_9.0_0.9_10.jpg","trial":98,"didAnswer":true,"imgDirection":"right","reactionTime":762,"correctAnswer":true},{"block":8,"image":"d2Right2_low.jpg","trial":99,"didAnswer":true,"imgDirection":"right","reactionTime":756,"correctAnswer":true},{"block":8,"image":"d7ori_19_right_9.0_jit7_0.9.jpg","trial":100,"didAnswer":true,"imgDirection":"right","reactionTime":1083,"correctAnswer":true},{"block":8,"image":"lf16Left4NoB_low.jpg","trial":101,"didAnswer":true,"imgDirection":"left","reactionTime":740,"correctAnswer":true},{"block":8,"image":"d7ori_6_left_9.0_jit7_0.9.jpg","trial":102,"didAnswer":true,"imgDirection":"left","reactionTime":832,"correctAnswer":true},{"block":8,"image":"d7ori_22_left_9.0_jit7_0.9.jpg","trial":103,"didAnswer":true,"imgDirection":"left","reactionTime":1051,"correctAnswer":true},{"block":8,"image":"d7ori_3_right_9.0_jit7_0.9.jpg","trial":104,"didAnswer":true,"imgDirection":"right","reactionTime":773,"correctAnswer":true},{"block":8,"image":"d7ori_14_left_9.0_jit7_0.9.jpg","trial":105,"didAnswer":true,"imgDirection":"left","reactionTime":895,"correctAnswer":true},{"block":8,"image":"d7ori_11_right_9.0_jit7_0.9.jpg","trial":106,"didAnswer":true,"imgDirection":"right","reactionTime":850,"correctAnswer":true},{"block":8,"image":"d7ori_2_left_9.0_jit7_0.9.jpg","trial":107,"didAnswer":true,"imgDirection":"left","reactionTime":717,"correctAnswer":true},{"block":8,"image":"d7ori_10_left_9.0_jit7_0.9.jpg","trial":108,"didAnswer":true,"imgDirection":"left","reactionTime":784,"correctAnswer":true},{"block":8,"image":"d7ori_15_right_9.0_jit7_0.9.jpg","trial":109,"didAnswer":true,"imgDirection":"right","reactionTime":780,"correctAnswer":true},{"block":8,"image":"d7ori_18_left_9.0_jit7_0.9.jpg","trial":110,"didAnswer":true,"imgDirection":"left","reactionTime":611,"correctAnswer":true},{"block":8,"image":"d7ori_23_right_9.0_jit7_0.9.jpg","trial":111,"didAnswer":true,"imgDirection":"right","reactionTime":822,"correctAnswer":true},{"block":8,"image":"d7ori_7_right_9.0_jit7_0.9.jpg","trial":112,"didAnswer":true,"imgDirection":"right","reactionTime":910,"correctAnswer":true},{"block":9,"image":"lf9Left9_low.jpg","trial":113,"didAnswer":true,"imgDirection":"left","reactionTime":774,"correctAnswer":true},{"block":9,"image":"left-d7ori_2_left_9.0_jit9_0.9.jpg","trial":114,"didAnswer":true,"imgDirection":"left","reactionTime":838,"correctAnswer":true},{"block":9,"image":"right-d7ori_15_right_9.0_jit9_0.9.jpg","trial":115,"didAnswer":true,"imgDirection":"right","reactionTime":1110,"correctAnswer":true},{"block":9,"image":"right-d7ori_3_right_9.0_jit9_0.9.jpg","trial":116,"didAnswer":true,"imgDirection":"right","reactionTime":903,"correctAnswer":true},{"block":9,"image":"right-d7ori_11_right_9.0_jit9_0.9.jpg","trial":117,"didAnswer":true,"imgDirection":"right","reactionTime":858,"correctAnswer":true},{"block":9,"image":"right-d7ori_23_right_9.0_jit9_0.9.jpg","trial":118,"didAnswer":true,"imgDirection":"right","reactionTime":811,"correctAnswer":true},{"block":9,"image":"right-d7ori_7_right_9.0_jit9_0.9.jpg","trial":119,"didAnswer":true,"imgDirection":"right","reactionTime":956,"correctAnswer":true},{"block":9,"image":"left-d7ori_6_left_9.0_jit9_0.9.jpg","trial":120,"didAnswer":true,"imgDirection":"left","reactionTime":1175,"correctAnswer":true},{"block":9,"image":"right-d7ori_19_right_9.0_jit9_0.9.jpg","trial":121,"didAnswer":true,"imgDirection":"right","reactionTime":1142,"correctAnswer":true},{"block":9,"image":"left-d7ori_10_left_9.0_jit9_0.9.jpg","trial":122,"didAnswer":true,"imgDirection":"left","reactionTime":971,"correctAnswer":true},{"block":9,"image":"left-d7ori_18_left_9.0_jit9_0.9.jpg","trial":123,"didAnswer":true,"imgDirection":"left","reactionTime":1077,"correctAnswer":true},{"block":9,"image":"left-d7ori_14_left_9.0_jit9_0.9.jpg","trial":124,"didAnswer":true,"imgDirection":"left","reactionTime":1090,"correctAnswer":true},{"block":9,"image":"d19Right9NoB_low.jpg","trial":125,"didAnswer":true,"imgDirection":"right","reactionTime":931,"correctAnswer":true},{"block":9,"image":"left-d7ori_22_left_9.0_jit9_0.9.jpg","trial":126,"didAnswer":true,"imgDirection":"left","reactionTime":1042,"correctAnswer":true},{"block":10,"image":"d7ori_4_right_9.0_jit11_0.9.jpg","trial":127,"didAnswer":true,"imgDirection":"right","reactionTime":794,"correctAnswer":true},{"block":10,"image":"d7ori_24_right_9.0_jit11_0.9.jpg","trial":128,"didAnswer":true,"imgDirection":"right","reactionTime":997,"correctAnswer":true},{"block":10,"image":"d7ori_8_right_9.0_jit11_0.9.jpg","trial":129,"didAnswer":true,"imgDirection":"right","reactionTime":800,"correctAnswer":true},{"block":10,"image":"d7ori_20_right_9.0_jit11_0.9.jpg","trial":130,"didAnswer":true,"imgDirection":"right","reactionTime":871,"correctAnswer":true},{"block":10,"image":"d12Right2NoB_low.jpg","trial":131,"didAnswer":true,"imgDirection":"right","reactionTime":765,"correctAnswer":true},{"block":10,"image":"d7ori_13_left_9.0_jit11_0.9.jpg","trial":132,"didAnswer":true,"imgDirection":"left","reactionTime":858,"correctAnswer":true},{"block":10,"image":"lf7Left7_low.jpg","trial":133,"didAnswer":true,"imgDirection":"left","reactionTime":783,"correctAnswer":true},{"block":10,"image":"d7ori_17_left_9.0_jit11_0.9.jpg","trial":134,"didAnswer":true,"imgDirection":"left","reactionTime":1006,"correctAnswer":true},{"block":10,"image":"d7ori_16_right_9.0_jit11_0.9.jpg","trial":135,"didAnswer":false,"imgDirection":"right","reactionTime":2009,"correctAnswer":null},{"block":10,"image":"d7ori_12_right_9.0_jit11_0.9.jpg","trial":136,"didAnswer":true,"imgDirection":"right","reactionTime":1046,"correctAnswer":true},{"block":10,"image":"d7ori_1_left_9.0_jit11_0.9.jpg","trial":137,"didAnswer":true,"imgDirection":"left","reactionTime":723,"correctAnswer":true},{"block":10,"image":"d7ori_5_left_9.0_jit11_0.9.jpg","trial":138,"didAnswer":true,"imgDirection":"left","reactionTime":1052,"correctAnswer":true},{"block":10,"image":"d7ori_21_left_9.0_jit11_0.9.jpg","trial":139,"didAnswer":true,"imgDirection":"left","reactionTime":1366,"correctAnswer":true},{"block":10,"image":"d7ori_9_left_9.0_jit11_0.9.jpg","trial":140,"didAnswer":true,"imgDirection":"left","reactionTime":1229,"correctAnswer":true},{"block":11,"image":"d7ori_19_right_9.0_jit13_0.9.jpg","trial":141,"didAnswer":false,"imgDirection":"right","reactionTime":2002,"correctAnswer":null},{"block":11,"image":"d7ori_6_left_9.0_jit13_0.9.jpg","trial":142,"didAnswer":false,"imgDirection":"left","reactionTime":2008,"correctAnswer":null},{"block":11,"image":"d7ori_2_left_9.0_jit13_0.9.jpg","trial":143,"didAnswer":true,"imgDirection":"left","reactionTime":1441,"correctAnswer":true},{"block":11,"image":"d3Right3_low.jpg","trial":144,"didAnswer":true,"imgDirection":"right","reactionTime":805,"correctAnswer":true},{"block":11,"image":"d7ori_14_left_9.0_jit13_0.9.jpg","trial":145,"didAnswer":true,"imgDirection":"left","reactionTime":1414,"correctAnswer":true},{"block":11,"image":"lf15Left3NoB_low.jpg","trial":146,"didAnswer":true,"imgDirection":"left","reactionTime":887,"correctAnswer":true},{"block":11,"image":"d7ori_23_right_9.0_jit13_0.9.jpg","trial":147,"didAnswer":true,"imgDirection":"right","reactionTime":1693,"correctAnswer":true},{"block":11,"image":"d7ori_11_right_9.0_jit13_0.9.jpg","trial":148,"didAnswer":true,"imgDirection":"right","reactionTime":1859,"correctAnswer":true},{"block":11,"image":"d7ori_10_left_9.0_jit13_0.9.jpg","trial":149,"didAnswer":true,"imgDirection":"left","reactionTime":1803,"correctAnswer":true},{"block":11,"image":"d7ori_15_right_9.0_jit13_0.9.jpg","trial":150,"didAnswer":true,"imgDirection":"right","reactionTime":1440,"correctAnswer":true},{"block":11,"image":"d7ori_7_right_9.0_jit13_0.9.jpg","trial":151,"didAnswer":true,"imgDirection":"right","reactionTime":1661,"correctAnswer":true},{"block":11,"image":"d7ori_3_right_9.0_jit13_0.9.jpg","trial":152,"didAnswer":true,"imgDirection":"right","reactionTime":1422,"correctAnswer":true},{"block":11,"image":"d7ori_18_left_9.0_jit13_0.9.jpg","trial":153,"didAnswer":true,"imgDirection":"left","reactionTime":1270,"correctAnswer":true},{"block":11,"image":"d7ori_22_left_9.0_jit13_0.9.jpg","trial":154,"didAnswer":true,"imgDirection":"left","reactionTime":1736,"correctAnswer":true},{"block":12,"image":"d7ori_15_right_9.0_jit15_0.9.jpg","trial":155,"didAnswer":true,"imgDirection":"right","reactionTime":1650,"correctAnswer":false},{"block":12,"image":"d7ori_7_right_9.0_jit15_0.9.jpg","trial":156,"didAnswer":true,"imgDirection":"right","reactionTime":1269,"correctAnswer":true},{"block":12,"image":"d7ori_6_left_9.0_jit15_0.9.jpg","trial":157,"didAnswer":true,"imgDirection":"left","reactionTime":1338,"correctAnswer":true},{"block":12,"image":"d7ori_22_left_9.0_jit15_0.9.jpg","trial":158,"didAnswer":true,"imgDirection":"left","reactionTime":959,"correctAnswer":true},{"block":12,"image":"d7ori_23_right_9.0_jit15_0.9.jpg","trial":159,"didAnswer":true,"imgDirection":"right","reactionTime":1021,"correctAnswer":true},{"block":12,"image":"d7ori_14_left_9.0_jit15_0.9.jpg","trial":160,"didAnswer":false,"imgDirection":"left","reactionTime":2014,"correctAnswer":null},{"block":12,"image":"lf21Left9NoB_low.jpg","trial":161,"didAnswer":true,"imgDirection":"left","reactionTime":890,"correctAnswer":true},{"block":12,"image":"d7ori_2_left_9.0_jit15_0.9.jpg","trial":162,"didAnswer":true,"imgDirection":"left","reactionTime":1195,"correctAnswer":true},{"block":12,"image":"d7ori_19_right_9.0_jit15_0.9.jpg","trial":163,"didAnswer":true,"imgDirection":"right","reactionTime":1513,"correctAnswer":true},{"block":12,"image":"d7ori_3_right_9.0_jit15_0.9.jpg","trial":164,"didAnswer":false,"imgDirection":"right","reactionTime":2005,"correctAnswer":null},{"block":12,"image":"d7ori_10_left_9.0_jit15_0.9.jpg","trial":165,"didAnswer":false,"imgDirection":"left","reactionTime":2005,"correctAnswer":null},{"block":12,"image":"d7ori_18_left_9.0_jit15_0.9.jpg","trial":166,"didAnswer":false,"imgDirection":"left","reactionTime":2006,"correctAnswer":null},{"block":12,"image":"lf4Left4_low.jpg","trial":167,"didAnswer":true,"imgDirection":"left","reactionTime":750,"correctAnswer":true},{"block":12,"image":"d7ori_11_right_9.0_jit15_0.9.jpg","trial":168,"didAnswer":true,"imgDirection":"right","reactionTime":977,"correctAnswer":true},{"block":13,"image":"d0ori_left_9.0_0.9_16.jpg","trial":169,"didAnswer":true,"imgDirection":"left","reactionTime":760,"correctAnswer":true},{"block":13,"image":"d0ori_right_9.0_0.9_17.jpg","trial":170,"didAnswer":true,"imgDirection":"right","reactionTime":655,"correctAnswer":true},{"block":13,"image":"d0ori_right_9.0_0.9_15.jpg","trial":171,"didAnswer":true,"imgDirection":"right","reactionTime":761,"correctAnswer":true},{"block":13,"image":"d0ori_left_9.0_0.9_15.jpg","trial":172,"didAnswer":true,"imgDirection":"left","reactionTime":869,"correctAnswer":true},{"block":13,"image":"d0ori_right_9.0_0.9_13.jpg","trial":173,"didAnswer":true,"imgDirection":"right","reactionTime":672,"correctAnswer":true},{"block":13,"image":"d0ori_left_9.0_0.9_12.jpg","trial":174,"didAnswer":true,"imgDirection":"left","reactionTime":671,"correctAnswer":true},{"block":13,"image":"d0ori_right_9.0_0.9_16.jpg","trial":175,"didAnswer":true,"imgDirection":"right","reactionTime":672,"correctAnswer":true},{"block":13,"image":"d0ori_left_9.0_0.9_17.jpg","trial":176,"didAnswer":true,"imgDirection":"left","reactionTime":627,"correctAnswer":true},{"block":13,"image":"d0ori_right_9.0_0.9_12.jpg","trial":177,"didAnswer":true,"imgDirection":"right","reactionTime":699,"correctAnswer":true},{"block":13,"image":"d0ori_left_9.0_0.9_13.jpg","trial":178,"didAnswer":true,"imgDirection":"left","reactionTime":615,"correctAnswer":true},{"block":13,"image":"d0Right0_low.jpg","trial":179,"didAnswer":true,"imgDirection":"right","reactionTime":609,"correctAnswer":true},{"block":13,"image":"d0ori_right_9.0_0.9_14.jpg","trial":180,"didAnswer":true,"imgDirection":"right","reactionTime":837,"correctAnswer":true},{"block":13,"image":"d17Right7NoB_low.jpg","trial":181,"didAnswer":true,"imgDirection":"right","reactionTime":690,"correctAnswer":true},{"block":13,"image":"d0ori_left_9.0_0.9_14.jpg","trial":182,"didAnswer":true,"imgDirection":"left","reactionTime":687,"correctAnswer":true},{"block":14,"image":"d7ori_10_right_9.0_jit7_0.9.jpg","trial":183,"didAnswer":true,"imgDirection":"right","reactionTime":768,"correctAnswer":true},{"block":14,"image":"d7ori_22_right_9.0_jit7_0.9.jpg","trial":184,"didAnswer":true,"imgDirection":"right","reactionTime":1369,"correctAnswer":true},{"block":14,"image":"d7ori_14_right_9.0_jit7_0.9.jpg","trial":185,"didAnswer":true,"imgDirection":"right","reactionTime":889,"correctAnswer":true},{"block":14,"image":"d7ori_11_left_9.0_jit7_0.9.jpg","trial":186,"didAnswer":true,"imgDirection":"left","reactionTime":875,"correctAnswer":true},{"block":14,"image":"d7ori_19_left_9.0_jit7_0.9.jpg","trial":187,"didAnswer":true,"imgDirection":"left","reactionTime":948,"correctAnswer":true},{"block":14,"image":"d7ori_15_left_9.0_jit7_0.9.jpg","trial":188,"didAnswer":true,"imgDirection":"left","reactionTime":923,"correctAnswer":true},{"block":14,"image":"d7ori_2_right_9.0_jit7_0.9.jpg","trial":189,"didAnswer":true,"imgDirection":"right","reactionTime":970,"correctAnswer":true},{"block":14,"image":"d10Right10_low.jpg","trial":190,"didAnswer":true,"imgDirection":"right","reactionTime":672,"correctAnswer":true},{"block":14,"image":"d7ori_6_right_9.0_jit7_0.9.jpg","trial":191,"didAnswer":true,"imgDirection":"right","reactionTime":1444,"correctAnswer":true},{"block":14,"image":"d7ori_23_left_9.0_jit7_0.9.jpg","trial":192,"didAnswer":true,"imgDirection":"left","reactionTime":707,"correctAnswer":true},{"block":14,"image":"d7ori_3_left_9.0_jit7_0.9.jpg","trial":193,"didAnswer":true,"imgDirection":"left","reactionTime":695,"correctAnswer":true},{"block":14,"image":"d7ori_7_left_9.0_jit7_0.9.jpg","trial":194,"didAnswer":true,"imgDirection":"left","reactionTime":922,"correctAnswer":true},{"block":14,"image":"d23Right11NoB_low.jpg","trial":195,"didAnswer":true,"imgDirection":"right","reactionTime":709,"correctAnswer":true},{"block":14,"image":"d7ori_18_right_9.0_jit7_0.9.jpg","trial":196,"didAnswer":true,"imgDirection":"right","reactionTime":934,"correctAnswer":true},{"block":15,"image":"right-d7ori_2_right_9.0_jit9_0.9.jpg","trial":197,"didAnswer":true,"imgDirection":"right","reactionTime":711,"correctAnswer":true},{"block":15,"image":"left-d7ori_23_left_9.0_jit9_0.9.jpg","trial":198,"didAnswer":true,"imgDirection":"left","reactionTime":685,"correctAnswer":true},{"block":15,"image":"right-d7ori_14_right_9.0_jit9_0.9.jpg","trial":199,"didAnswer":true,"imgDirection":"right","reactionTime":692,"correctAnswer":true},{"block":15,"image":"left-d7ori_19_left_9.0_jit9_0.9.jpg","trial":200,"didAnswer":true,"imgDirection":"left","reactionTime":853,"correctAnswer":true},{"block":15,"image":"left-d7ori_11_left_9.0_jit9_0.9.jpg","trial":201,"didAnswer":true,"imgDirection":"left","reactionTime":928,"correctAnswer":false},{"block":15,"image":"right-d7ori_18_right_9.0_jit9_0.9.jpg","trial":202,"didAnswer":true,"imgDirection":"right","reactionTime":812,"correctAnswer":true},{"block":15,"image":"right-d7ori_10_right_9.0_jit9_0.9.jpg","trial":203,"didAnswer":true,"imgDirection":"right","reactionTime":791,"correctAnswer":true},{"block":15,"image":"right-d7ori_22_right_9.0_jit9_0.9.jpg","trial":204,"didAnswer":true,"imgDirection":"right","reactionTime":904,"correctAnswer":true},{"block":15,"image":"right-d7ori_6_right_9.0_jit9_0.9.jpg","trial":205,"didAnswer":true,"imgDirection":"right","reactionTime":1515,"correctAnswer":true},{"block":15,"image":"lf22Left10NoB_low.jpg","trial":206,"didAnswer":true,"imgDirection":"left","reactionTime":796,"correctAnswer":true},{"block":15,"image":"left-d7ori_3_left_9.0_jit9_0.9.jpg","trial":207,"didAnswer":true,"imgDirection":"left","reactionTime":1072,"correctAnswer":true},{"block":15,"image":"left-d7ori_7_left_9.0_jit9_0.9.jpg","trial":208,"didAnswer":true,"imgDirection":"left","reactionTime":1063,"correctAnswer":true},{"block":15,"image":"lf11Left11_low.jpg","trial":209,"didAnswer":true,"imgDirection":"left","reactionTime":820,"correctAnswer":true},{"block":15,"image":"left-d7ori_15_left_9.0_jit9_0.9.jpg","trial":210,"didAnswer":true,"imgDirection":"left","reactionTime":1084,"correctAnswer":true},{"block":16,"image":"d7ori_5_right_9.0_jit11_0.9.jpg","trial":211,"didAnswer":true,"imgDirection":"right","reactionTime":768,"correctAnswer":true},{"block":16,"image":"d7ori_24_left_9.0_jit11_0.9.jpg","trial":212,"didAnswer":true,"imgDirection":"left","reactionTime":807,"correctAnswer":true},{"block":16,"image":"d7ori_20_left_9.0_jit11_0.9.jpg","trial":213,"didAnswer":true,"imgDirection":"left","reactionTime":825,"correctAnswer":true},{"block":16,"image":"d7ori_21_right_9.0_jit11_0.9.jpg","trial":214,"didAnswer":true,"imgDirection":"right","reactionTime":965,"correctAnswer":true},{"block":16,"image":"d7ori_1_right_9.0_jit11_0.9.jpg","trial":215,"didAnswer":true,"imgDirection":"right","reactionTime":952,"correctAnswer":true},{"block":16,"image":"d7ori_13_right_9.0_jit11_0.9.jpg","trial":216,"didAnswer":true,"imgDirection":"right","reactionTime":922,"correctAnswer":true},{"block":16,"image":"d7ori_9_right_9.0_jit11_0.9.jpg","trial":217,"didAnswer":true,"imgDirection":"right","reactionTime":1470,"correctAnswer":true},{"block":16,"image":"d7ori_8_left_9.0_jit11_0.9.jpg","trial":218,"didAnswer":true,"imgDirection":"left","reactionTime":934,"correctAnswer":true},{"block":16,"image":"lf12Left0NoB_low.jpg","trial":219,"didAnswer":true,"imgDirection":"left","reactionTime":717,"correctAnswer":true},{"block":16,"image":"d7ori_17_right_9.0_jit11_0.9.jpg","trial":220,"didAnswer":true,"imgDirection":"right","reactionTime":873,"correctAnswer":true},{"block":16,"image":"d7ori_16_left_9.0_jit11_0.9.jpg","trial":221,"didAnswer":true,"imgDirection":"left","reactionTime":794,"correctAnswer":true},{"block":16,"image":"d7ori_4_left_9.0_jit11_0.9.jpg","trial":222,"didAnswer":true,"imgDirection":"left","reactionTime":906,"correctAnswer":true},{"block":16,"image":"d7ori_12_left_9.0_jit11_0.9.jpg","trial":223,"didAnswer":true,"imgDirection":"left","reactionTime":940,"correctAnswer":true},{"block":16,"image":"lf3Left3_low.jpg","trial":224,"didAnswer":true,"imgDirection":"left","reactionTime":823,"correctAnswer":true},{"block":17,"image":"d7ori_7_left_9.0_jit13_0.9.jpg","trial":225,"didAnswer":true,"imgDirection":"left","reactionTime":1003,"correctAnswer":true},{"block":17,"image":"d7ori_2_right_9.0_jit13_0.9.jpg","trial":226,"didAnswer":true,"imgDirection":"right","reactionTime":975,"correctAnswer":true},{"block":17,"image":"d7ori_10_right_9.0_jit13_0.9.jpg","trial":227,"didAnswer":true,"imgDirection":"right","reactionTime":1329,"correctAnswer":true},{"block":17,"image":"d7ori_11_left_9.0_jit13_0.9.jpg","trial":228,"didAnswer":true,"imgDirection":"left","reactionTime":1205,"correctAnswer":true},{"block":17,"image":"d7ori_3_left_9.0_jit13_0.9.jpg","trial":229,"didAnswer":true,"imgDirection":"left","reactionTime":1164,"correctAnswer":true},{"block":17,"image":"d7ori_15_left_9.0_jit13_0.9.jpg","trial":230,"didAnswer":true,"imgDirection":"left","reactionTime":1332,"correctAnswer":false},{"block":17,"image":"d7ori_22_right_9.0_jit13_0.9.jpg","trial":231,"didAnswer":true,"imgDirection":"right","reactionTime":956,"correctAnswer":true},{"block":17,"image":"d16Right6NoB_low.jpg","trial":232,"didAnswer":true,"imgDirection":"right","reactionTime":849,"correctAnswer":true},{"block":17,"image":"d7ori_23_left_9.0_jit13_0.9.jpg","trial":233,"didAnswer":true,"imgDirection":"left","reactionTime":1261,"correctAnswer":true},{"block":17,"image":"d7ori_18_right_9.0_jit13_0.9.jpg","trial":234,"didAnswer":false,"imgDirection":"right","reactionTime":2014,"correctAnswer":null},{"block":17,"image":"d7ori_6_right_9.0_jit13_0.9.jpg","trial":235,"didAnswer":true,"imgDirection":"right","reactionTime":1463,"correctAnswer":false},{"block":17,"image":"d7ori_14_right_9.0_jit13_0.9.jpg","trial":236,"didAnswer":true,"imgDirection":"right","reactionTime":1006,"correctAnswer":true},{"block":17,"image":"d5Right5_low.jpg","trial":237,"didAnswer":true,"imgDirection":"right","reactionTime":803,"correctAnswer":true},{"block":17,"image":"d7ori_19_left_9.0_jit13_0.9.jpg","trial":238,"didAnswer":false,"imgDirection":"left","reactionTime":2015,"correctAnswer":null},{"block":18,"image":"d7ori_11_left_9.0_jit15_0.9.jpg","trial":239,"didAnswer":true,"imgDirection":"left","reactionTime":1201,"correctAnswer":true},{"block":18,"image":"d7ori_22_right_9.0_jit15_0.9.jpg","trial":240,"didAnswer":true,"imgDirection":"right","reactionTime":1768,"correctAnswer":false},{"block":18,"image":"lf17Left5NoB_low.jpg","trial":241,"didAnswer":true,"imgDirection":"left","reactionTime":844,"correctAnswer":true},{"block":18,"image":"d7ori_3_left_9.0_jit15_0.9.jpg","trial":242,"didAnswer":true,"imgDirection":"left","reactionTime":1473,"correctAnswer":true},{"block":18,"image":"d7ori_10_right_9.0_jit15_0.9.jpg","trial":243,"didAnswer":true,"imgDirection":"right","reactionTime":1043,"correctAnswer":true},{"block":18,"image":"d8Right8_low.jpg","trial":244,"didAnswer":true,"imgDirection":"right","reactionTime":638,"correctAnswer":true},{"block":18,"image":"d7ori_18_right_9.0_jit15_0.9.jpg","trial":245,"didAnswer":true,"imgDirection":"right","reactionTime":1157,"correctAnswer":true},{"block":18,"image":"d7ori_2_right_9.0_jit15_0.9.jpg","trial":246,"didAnswer":false,"imgDirection":"right","reactionTime":2005,"correctAnswer":null},{"block":18,"image":"d7ori_15_left_9.0_jit15_0.9.jpg","trial":247,"didAnswer":false,"imgDirection":"left","reactionTime":2005,"correctAnswer":null},{"block":18,"image":"d7ori_14_right_9.0_jit15_0.9.jpg","trial":248,"didAnswer":false,"imgDirection":"right","reactionTime":2010,"correctAnswer":null},{"block":18,"image":"d7ori_19_left_9.0_jit15_0.9.jpg","trial":249,"didAnswer":true,"imgDirection":"left","reactionTime":1112,"correctAnswer":true},{"block":18,"image":"d7ori_6_right_9.0_jit15_0.9.jpg","trial":250,"didAnswer":true,"imgDirection":"right","reactionTime":1288,"correctAnswer":true},{"block":18,"image":"d7ori_23_left_9.0_jit15_0.9.jpg","trial":251,"didAnswer":true,"imgDirection":"left","reactionTime":796,"correctAnswer":true},{"block":18,"image":"d7ori_7_left_9.0_jit15_0.9.jpg","trial":252,"didAnswer":true,"imgDirection":"left","reactionTime":1075,"correctAnswer":true},{"block":19,"image":"lf0Left0_low.jpg","trial":253,"didAnswer":true,"imgDirection":"left","reactionTime":594,"correctAnswer":true},{"block":19,"image":"d0ori_left_9.0_0.9_20.jpg","trial":254,"didAnswer":true,"imgDirection":"left","reactionTime":595,"correctAnswer":true},{"block":19,"image":"d0ori_right_9.0_0.9_18.jpg","trial":255,"didAnswer":true,"imgDirection":"right","reactionTime":773,"correctAnswer":true},{"block":19,"image":"d0ori_right_9.0_0.9_20.jpg","trial":256,"didAnswer":true,"imgDirection":"right","reactionTime":822,"correctAnswer":true},{"block":19,"image":"d0ori_left_9.0_0.9_19.jpg","trial":257,"didAnswer":true,"imgDirection":"left","reactionTime":575,"correctAnswer":true},{"block":19,"image":"d0ori_right_9.0_0.9_19.jpg","trial":258,"didAnswer":true,"imgDirection":"right","reactionTime":530,"correctAnswer":true},{"block":19,"image":"d0ori_left_9.0_0.9_23.jpg","trial":259,"didAnswer":true,"imgDirection":"left","reactionTime":581,"correctAnswer":true},{"block":19,"image":"d0ori_right_9.0_0.9_22.jpg","trial":260,"didAnswer":true,"imgDirection":"right","reactionTime":710,"correctAnswer":true},{"block":19,"image":"d0ori_left_9.0_0.9_18.jpg","trial":261,"didAnswer":true,"imgDirection":"left","reactionTime":645,"correctAnswer":true},{"block":19,"image":"d0ori_right_9.0_0.9_23.jpg","trial":262,"didAnswer":true,"imgDirection":"right","reactionTime":542,"correctAnswer":true},{"block":19,"image":"d13Right3NoB_low.jpg","trial":263,"didAnswer":true,"imgDirection":"right","reactionTime":580,"correctAnswer":true},{"block":19,"image":"d0ori_left_9.0_0.9_21.jpg","trial":264,"didAnswer":true,"imgDirection":"left","reactionTime":538,"correctAnswer":true},{"block":19,"image":"d0ori_right_9.0_0.9_21.jpg","trial":265,"didAnswer":true,"imgDirection":"right","reactionTime":618,"correctAnswer":true},{"block":19,"image":"d0ori_left_9.0_0.9_22.jpg","trial":266,"didAnswer":true,"imgDirection":"left","reactionTime":605,"correctAnswer":true},{"block":20,"image":"d7ori_1_right_9.0_jit7_0.9.jpg","trial":267,"didAnswer":true,"imgDirection":"right","reactionTime":1051,"correctAnswer":true},{"block":20,"image":"d7ori_5_right_9.0_jit7_0.9.jpg","trial":268,"didAnswer":true,"imgDirection":"right","reactionTime":769,"correctAnswer":true},{"block":20,"image":"d22Right10NoB_low.jpg","trial":269,"didAnswer":true,"imgDirection":"right","reactionTime":556,"correctAnswer":true},{"block":20,"image":"d7ori_8_left_9.0_jit7_0.9.jpg","trial":270,"didAnswer":true,"imgDirection":"left","reactionTime":738,"correctAnswer":true},{"block":20,"image":"d7ori_13_right_9.0_jit7_0.9.jpg","trial":271,"didAnswer":true,"imgDirection":"right","reactionTime":799,"correctAnswer":true},{"block":20,"image":"lf1Left1_low.jpg","trial":272,"didAnswer":true,"imgDirection":"left","reactionTime":579,"correctAnswer":true},{"block":20,"image":"d7ori_9_right_9.0_jit7_0.9.jpg","trial":273,"didAnswer":true,"imgDirection":"right","reactionTime":785,"correctAnswer":true},{"block":20,"image":"d7ori_16_left_9.0_jit7_0.9.jpg","trial":274,"didAnswer":true,"imgDirection":"left","reactionTime":685,"correctAnswer":true},{"block":20,"image":"d7ori_24_left_9.0_jit7_0.9.jpg","trial":275,"didAnswer":true,"imgDirection":"left","reactionTime":730,"correctAnswer":true},{"block":20,"image":"d7ori_12_left_9.0_jit7_0.9.jpg","trial":276,"didAnswer":true,"imgDirection":"left","reactionTime":835,"correctAnswer":true},{"block":20,"image":"d7ori_20_left_9.0_jit7_0.9.jpg","trial":277,"didAnswer":true,"imgDirection":"left","reactionTime":755,"correctAnswer":true},{"block":20,"image":"d7ori_4_left_9.0_jit7_0.9.jpg","trial":278,"didAnswer":true,"imgDirection":"left","reactionTime":967,"correctAnswer":true},{"block":20,"image":"d7ori_17_right_9.0_jit7_0.9.jpg","trial":279,"didAnswer":true,"imgDirection":"right","reactionTime":723,"correctAnswer":true},{"block":20,"image":"d7ori_21_right_9.0_jit7_0.9.jpg","trial":280,"didAnswer":true,"imgDirection":"right","reactionTime":785,"correctAnswer":true},{"block":21,"image":"lf14Left2NoB_low.jpg","trial":281,"didAnswer":true,"imgDirection":"left","reactionTime":727,"correctAnswer":true},{"block":21,"image":"right-d7ori_17_right_9.0_jit9_0.9.jpg","trial":282,"didAnswer":true,"imgDirection":"right","reactionTime":773,"correctAnswer":true},{"block":21,"image":"left-d7ori_16_left_9.0_jit9_0.9.jpg","trial":283,"didAnswer":true,"imgDirection":"left","reactionTime":911,"correctAnswer":true},{"block":21,"image":"right-d7ori_13_right_9.0_jit9_0.9.jpg","trial":284,"didAnswer":true,"imgDirection":"right","reactionTime":856,"correctAnswer":true},{"block":21,"image":"left-d7ori_20_left_9.0_jit9_0.9.jpg","trial":285,"didAnswer":true,"imgDirection":"left","reactionTime":706,"correctAnswer":true},{"block":21,"image":"left-d7ori_24_left_9.0_jit9_0.9.jpg","trial":286,"didAnswer":true,"imgDirection":"left","reactionTime":854,"correctAnswer":true},{"block":21,"image":"right-d7ori_5_right_9.0_jit9_0.9.jpg","trial":287,"didAnswer":true,"imgDirection":"right","reactionTime":760,"correctAnswer":true},{"block":21,"image":"left-d7ori_8_left_9.0_jit9_0.9.jpg","trial":288,"didAnswer":true,"imgDirection":"left","reactionTime":631,"correctAnswer":true},{"block":21,"image":"right-d7ori_1_right_9.0_jit9_0.9.jpg","trial":289,"didAnswer":true,"imgDirection":"right","reactionTime":645,"correctAnswer":true},{"block":21,"image":"right-d7ori_21_right_9.0_jit9_0.9.jpg","trial":290,"didAnswer":true,"imgDirection":"right","reactionTime":659,"correctAnswer":true},{"block":21,"image":"d9Right9_low.jpg","trial":291,"didAnswer":true,"imgDirection":"right","reactionTime":578,"correctAnswer":true},{"block":21,"image":"left-d7ori_4_left_9.0_jit9_0.9.jpg","trial":292,"didAnswer":true,"imgDirection":"left","reactionTime":698,"correctAnswer":true},{"block":21,"image":"left-d7ori_12_left_9.0_jit9_0.9.jpg","trial":293,"didAnswer":true,"imgDirection":"left","reactionTime":682,"correctAnswer":false},{"block":21,"image":"right-d7ori_9_right_9.0_jit9_0.9.jpg","trial":294,"didAnswer":true,"imgDirection":"right","reactionTime":668,"correctAnswer":true},{"block":22,"image":"d7ori_2_right_9.0_jit11_0.9.jpg","trial":295,"didAnswer":true,"imgDirection":"right","reactionTime":1046,"correctAnswer":true},{"block":22,"image":"d7ori_11_left_9.0_jit11_0.9.jpg","trial":296,"didAnswer":true,"imgDirection":"left","reactionTime":705,"correctAnswer":true},{"block":22,"image":"d7ori_15_left_9.0_jit11_0.9.jpg","trial":297,"didAnswer":true,"imgDirection":"left","reactionTime":849,"correctAnswer":true},{"block":22,"image":"d7ori_18_right_9.0_jit11_0.9.jpg","trial":298,"didAnswer":true,"imgDirection":"right","reactionTime":829,"correctAnswer":true},{"block":22,"image":"d7ori_22_right_9.0_jit11_0.9.jpg","trial":299,"didAnswer":true,"imgDirection":"right","reactionTime":896,"correctAnswer":true},{"block":22,"image":"d7ori_14_right_9.0_jit11_0.9.jpg","trial":300,"didAnswer":true,"imgDirection":"right","reactionTime":843,"correctAnswer":true},{"block":22,"image":"lf8Left8_low.jpg","trial":301,"didAnswer":true,"imgDirection":"left","reactionTime":673,"correctAnswer":true},{"block":22,"image":"d7ori_7_left_9.0_jit11_0.9.jpg","trial":302,"didAnswer":true,"imgDirection":"left","reactionTime":1188,"correctAnswer":true},{"block":22,"image":"lf19Left7NoB_low.jpg","trial":303,"didAnswer":true,"imgDirection":"left","reactionTime":752,"correctAnswer":true},{"block":22,"image":"d7ori_6_right_9.0_jit11_0.9.jpg","trial":304,"didAnswer":true,"imgDirection":"right","reactionTime":1100,"correctAnswer":true},{"block":22,"image":"d7ori_19_left_9.0_jit11_0.9.jpg","trial":305,"didAnswer":true,"imgDirection":"left","reactionTime":674,"correctAnswer":true},{"block":22,"image":"d7ori_23_left_9.0_jit11_0.9.jpg","trial":306,"didAnswer":true,"imgDirection":"left","reactionTime":771,"correctAnswer":true},{"block":22,"image":"d7ori_3_left_9.0_jit11_0.9.jpg","trial":307,"didAnswer":true,"imgDirection":"left","reactionTime":1042,"correctAnswer":true},{"block":22,"image":"d7ori_10_right_9.0_jit11_0.9.jpg","trial":308,"didAnswer":true,"imgDirection":"right","reactionTime":1000,"correctAnswer":true},{"block":23,"image":"d7ori_1_right_9.0_jit13_0.9.jpg","trial":309,"didAnswer":true,"imgDirection":"right","reactionTime":700,"correctAnswer":true},{"block":23,"image":"d7ori_8_left_9.0_jit13_0.9.jpg","trial":310,"didAnswer":true,"imgDirection":"left","reactionTime":757,"correctAnswer":true},{"block":23,"image":"d7ori_9_right_9.0_jit13_0.9.jpg","trial":311,"didAnswer":true,"imgDirection":"right","reactionTime":694,"correctAnswer":true},{"block":23,"image":"d7ori_5_right_9.0_jit13_0.9.jpg","trial":312,"didAnswer":true,"imgDirection":"right","reactionTime":685,"correctAnswer":true},{"block":23,"image":"d7ori_20_left_9.0_jit13_0.9.jpg","trial":313,"didAnswer":true,"imgDirection":"left","reactionTime":692,"correctAnswer":true},{"block":23,"image":"d7ori_12_left_9.0_jit13_0.9.jpg","trial":314,"didAnswer":true,"imgDirection":"left","reactionTime":805,"correctAnswer":true},{"block":23,"image":"d7ori_24_left_9.0_jit13_0.9.jpg","trial":315,"didAnswer":true,"imgDirection":"left","reactionTime":589,"correctAnswer":true},{"block":23,"image":"d7Right7_low.jpg","trial":316,"didAnswer":true,"imgDirection":"right","reactionTime":498,"correctAnswer":true},{"block":23,"image":"d7ori_17_right_9.0_jit13_0.9.jpg","trial":317,"didAnswer":true,"imgDirection":"right","reactionTime":1168,"correctAnswer":true},{"block":23,"image":"d7ori_21_right_9.0_jit13_0.9.jpg","trial":318,"didAnswer":true,"imgDirection":"right","reactionTime":862,"correctAnswer":true},{"block":23,"image":"d7ori_13_right_9.0_jit13_0.9.jpg","trial":319,"didAnswer":true,"imgDirection":"right","reactionTime":755,"correctAnswer":true},{"block":23,"image":"d18Right8NoB_low.jpg","trial":320,"didAnswer":true,"imgDirection":"right","reactionTime":542,"correctAnswer":true},{"block":23,"image":"d7ori_4_left_9.0_jit13_0.9.jpg","trial":321,"didAnswer":true,"imgDirection":"left","reactionTime":993,"correctAnswer":false},{"block":23,"image":"d7ori_16_left_9.0_jit13_0.9.jpg","trial":322,"didAnswer":true,"imgDirection":"left","reactionTime":1059,"correctAnswer":true},{"block":24,"image":"d7ori_20_left_9.0_jit15_0.9.jpg","trial":323,"didAnswer":true,"imgDirection":"left","reactionTime":779,"correctAnswer":true},{"block":24,"image":"d7ori_21_right_9.0_jit15_0.9.jpg","trial":324,"didAnswer":true,"imgDirection":"right","reactionTime":1158,"correctAnswer":true},{"block":24,"image":"d1Right1_low.jpg","trial":325,"didAnswer":true,"imgDirection":"right","reactionTime":764,"correctAnswer":true},{"block":24,"image":"d7ori_17_right_9.0_jit15_0.9.jpg","trial":326,"didAnswer":true,"imgDirection":"right","reactionTime":1021,"correctAnswer":true},{"block":24,"image":"d7ori_9_right_9.0_jit15_0.9.jpg","trial":327,"didAnswer":true,"imgDirection":"right","reactionTime":866,"correctAnswer":true},{"block":24,"image":"d7ori_12_left_9.0_jit15_0.9.jpg","trial":328,"didAnswer":true,"imgDirection":"left","reactionTime":1200,"correctAnswer":true},{"block":24,"image":"d7ori_4_left_9.0_jit15_0.9.jpg","trial":329,"didAnswer":true,"imgDirection":"left","reactionTime":1127,"correctAnswer":true},{"block":24,"image":"d7ori_16_left_9.0_jit15_0.9.jpg","trial":330,"didAnswer":false,"imgDirection":"left","reactionTime":2013,"correctAnswer":null},{"block":24,"image":"d7ori_8_left_9.0_jit15_0.9.jpg","trial":331,"didAnswer":true,"imgDirection":"left","reactionTime":1305,"correctAnswer":true},{"block":24,"image":"lf20Left8NoB_low.jpg","trial":332,"didAnswer":true,"imgDirection":"left","reactionTime":934,"correctAnswer":true},{"block":24,"image":"d7ori_1_right_9.0_jit15_0.9.jpg","trial":333,"didAnswer":false,"imgDirection":"right","reactionTime":2001,"correctAnswer":null},{"block":24,"image":"d7ori_13_right_9.0_jit15_0.9.jpg","trial":334,"didAnswer":true,"imgDirection":"right","reactionTime":1152,"correctAnswer":true},{"block":24,"image":"d7ori_24_left_9.0_jit15_0.9.jpg","trial":335,"didAnswer":true,"imgDirection":"left","reactionTime":1046,"correctAnswer":true},{"block":24,"image":"d7ori_5_right_9.0_jit15_0.9.jpg","trial":336,"didAnswer":false,"imgDirection":"right","reactionTime":2011,"correctAnswer":null}],"browserInfo":{"windowInfo":{"width":1920,"height":974},"navigatorInfo":{"onLine":true,"vendor":"Google Inc.","appName":"Netscape","plugins":{"0":{"0":{}},"1":{"0":{}},"2":{"0":{},"1":{}},"3":{"0":{}}},"product":"Gecko","storage":{},"language":"cs","platform":"Win32","languages":["cs-CZ","cs"],"mimeTypes":{"0":{},"1":{},"2":{},"3":{},"4":{}},"userAgent":"Mozilla/5.0 (Windows NT 6.1; Win64; x64) AppleWebKit/537.36 (KHTML, like Gecko) Chrome/58.0.3029.110 Safari/537.36","vendorSub":"","appVersion":"5.0 (Windows NT 6.1; Win64; x64) AppleWebKit/537.36 (KHTML, like Gecko) Chrome/58.0.3029.110 Safari/537.36","doNotTrack":null,"productSub":"20030107","appCodeName":"Mozilla","credentials":{},"geolocation":{},"permissions":{},"mediaDevices":{},"presentation":{},"cookieEnabled":true,"serviceWorker":{},"maxTouchPoints":0,"hardwareConcurrency":4,"webkitTemporaryStorage":{},"webkitPersistentStorage":{}}}}